orientation,1
timestamp_nanosecond,local_timestamp_milliseconds,accel_x_mps2,accel_y_mps2,accel_z_mps2,rotation_x_sin_theta_by_2,rotation_y_sin_theta_by_2,rotation_z_sin_theta_by_2,rotation_cos_theta_by_2,angvelocity_x_radps,angvelocity_y_radps,angvelocity_z_radps,yaw,pitch,roll,bbi
1622750241771,1622750241771,10.118649,-0.14237295,-0.22642085,-0.7128283,-0.06752653,-0.69401026,0.07527126,-6.1084726E-4,-4.5813544E-4,0.0013744063,2.9331884,0.014065903,-1.5931692,
1622750241878,1622750241878,10.00499,-0.15672988,-0.2623132,-0.71286327,-0.06749065,-0.6939834,0.07522044,-3.0542363E-4,-3.0542363E-4,-6.1084726E-4,2.9390507,0.01565851,-1.5970086,
1622750241996,1622750241997,10.033704,-0.1160519,-0.24077778,-0.7128576,-0.06744377,-0.6939883,0.075269856,-0.0,-4.5813544E-4,-4.5813544E-4,2.9273279,0.011562364,-1.5947887,
1622750242097,1622750242097,10.044471,-0.0849452,-0.2635096,-0.71283287,-0.06751146,-0.69400686,0.07527273,-7.635591E-4,-4.5813544E-4,-9.162709E-4,2.9261706,0.008453802,-1.5970246,
1622750242197,1622750242197,9.917651,-0.16630118,-0.2527419,-0.7128931,-0.06743433,-0.69396067,0.07519705,-0.0,3.0542363E-4,-4.5813544E-4,2.9208968,0.016761187,-1.5962749,
1622750242298,1622750242298,10.11147,-0.17108682,-0.29222345,-0.7128716,-0.06743519,-0.6939775,0.07524496,-0.0,-9.162709E-4,-0.0010689828,2.924442,0.016911399,-1.5996885,
1622750242398,1622750242399,10.124631,-0.10289137,-0.22761725,-0.7129275,-0.06737966,-0.69393444,0.0751623,-3.0542363E-4,-7.635591E-4,-1.5271181E-4,2.9135592,0.010159564,-1.5932741,
1622750242500,1622750242501,10.061221,-0.16630118,-0.2324029,-0.71285737,-0.0674635,-0.6939883,0.07525497,1.5271181E-4,-3.0542363E-4,-1.5271181E-4,2.9255643,0.016523015,-1.5938911,
1622750242602,1622750242602,9.905687,-0.1268196,-0.26590243,-0.7128515,-0.06744458,-0.6939931,0.07528297,1.5271181E-4,-3.0542363E-4,3.0542363E-4,2.9324815,0.012797398,-1.5976332,
1622750242702,1622750242703,9.997811,-0.1794617,-0.2730809,-0.7128973,-0.06737534,-0.6939581,0.07523382,1.5271181E-4,-3.0542363E-4,6.1084726E-4,2.9406393,0.017941482,-1.5981036,
1622750242803,1622750242803,10.095917,-0.16630118,-0.2216352,-0.71285886,-0.06742086,-0.69398767,0.075285,4.5813544E-4,3.0542363E-4,1.5271181E-4,2.934218,0.016466666,-1.5927458,
1622750242902,1622750242903,10.075578,-0.10887343,-0.23838496,-0.71278703,-0.06757153,-0.69404197,0.07532907,-0.0,9.162709E-4,-4.5813544E-4,2.9275966,0.010802233,-1.5944515,
1622750243003,1622750243003,9.978668,-0.1591227,-0.2862414,-0.71279746,-0.067469604,-0.69403505,0.075385235,-3.0542363E-4,-4.5813544E-4,-9.162709E-4,2.9364142,0.01593838,-1.5994738,
1622750243103,1622750243104,10.0372925,-0.10767702,-0.2754737,-0.7128567,-0.06736036,-0.69399005,0.075337134,-3.0542363E-4,0.0,3.0542363E-4,2.9301722,0.010723247,-1.5982344,
1622750243204,1622750243204,10.086346,-0.1471586,-0.25872394,-0.71284837,-0.067407586,-0.693996,0.07531897,-0.0,-3.0542363E-4,6.1084726E-4,2.9312618,0.0145840505,-1.5964416,
1622750243305,1622750243306,10.074382,-0.18544376,-0.22402802,-0.71289057,-0.06742004,-0.6939628,0.075214,1.5271181E-4,0.0,0.0015271181,2.9281936,0.018400831,-1.5930301,
1622750243405,1622750243406,9.98824,-0.16630118,-0.2515455,-0.7128511,-0.0674239,-0.6939937,0.07530008,-0.0,3.0542363E-4,-1.5271181E-4,2.934541,0.016642882,-1.5959752,
1622750243506,1622750243506,10.044471,-0.15074782,-0.26590243,-0.7128508,-0.06739849,-0.6939942,0.0753206,-6.1084726E-4,-4.5813544E-4,-1.5271181E-4,2.9371767,0.015001657,-1.5972626,
1622750243607,1622750243607,10.066007,-0.1471586,-0.24077778,-0.712894,-0.067285046,-0.6939618,0.07531187,-3.0542363E-4,3.0542363E-4,-4.5813544E-4,2.9302294,0.014614141,-1.5947117,
1622750243708,1622750243708,9.997811,-0.15314065,-0.24197419,-0.71290106,-0.067368954,-0.69395524,0.07523032,-6.1084726E-4,-3.0542363E-4,-1.5271181E-4,2.9322374,0.015311737,-1.5949943,
1622750243809,1622750243810,9.952348,-0.13758731,-0.26111677,-0.71283925,-0.06747995,-0.6940023,0.075282946,-0.0,-3.0542363E-4,-0.0010689828,2.926893,0.013818972,-1.5970271,
1622750243911,1622750243912,9.972687,-0.17347965,-0.27906293,-0.7127774,-0.06750146,-0.6940504,0.07540568,-3.0542363E-4,-4.5813544E-4,1.5271181E-4,2.9268515,0.017386919,-1.5987717,
1622750244012,1622750244012,10.028918,-0.08973085,-0.2670988,-0.7128162,-0.06737854,-0.6940215,0.07541429,-7.635591E-4,-3.0542363E-4,-0.0013744063,2.9227834,0.008943801,-1.5974228,
1622750244112,1622750244113,10.002597,-0.13878371,-0.2862414,-0.7128348,-0.06734596,-0.6940074,0.07539783,1.5271181E-4,7.635591E-4,-4.5813544E-4,2.9258044,0.0138682,-1.5994053,
1622750244213,1622750244213,9.983455,-0.16031912,-0.26111677,-0.7128217,-0.06740156,-0.69401693,0.07538375,-0.0010689828,-7.635591E-4,1.5271181E-4,2.9278836,0.016051613,-1.5969453,
1622750244314,1622750244315,9.966704,-0.13280165,-0.2324029,-0.71277297,-0.06754153,-0.69405335,0.07538432,1.5271181E-4,-4.5813544E-4,-4.5813544E-4,2.9248984,0.013320122,-1.59411,
1622750244415,1622750244415,10.087543,-0.13998012,-0.26111677,-0.71280307,-0.06748154,-0.6940306,0.07536337,-3.0542363E-4,-7.635591E-4,-4.5813544E-4,2.9289777,0.013870997,-1.5966756,
1622750244516,1622750244516,10.014561,-0.09332009,-0.27906293,-0.7127959,-0.06738089,-0.6940374,0.07545817,1.5271181E-4,3.0542363E-4,-9.162709E-4,2.934304,0.009314556,-1.5986549,
1622750244616,1622750244617,9.961919,-0.12921242,-0.27906293,-0.71287,-0.0673289,-0.69398004,0.075331755,-7.635591E-4,4.5813544E-4,-9.162709E-4,2.9388502,0.012964823,-1.598802,
1622750244716,1622750244717,10.036097,-0.124426775,-0.21684955,-0.7129529,-0.06722085,-0.6939165,0.07522929,-0.0,4.5813544E-4,-4.5813544E-4,2.9328547,0.0123943975,-1.5924,
1622750244817,1622750244817,10.042078,-0.1363909,-0.2670988,-0.71282804,-0.067435086,-0.6940116,0.0753434,-0.0,-4.5813544E-4,6.1084726E-4,2.9441836,0.013576304,-1.597388,
1622750244918,1622750244918,9.978668,-0.15672988,-0.26590243,-0.71259505,-0.06766734,-0.69419086,0.07568687,4.5813544E-4,3.0542363E-4,7.635591E-4,2.9418151,0.015699629,-1.5974371,
1622750245019,1622750245019,9.922438,-0.09212367,-0.27786654,-0.7126818,-0.067565225,-0.69412434,0.07557123,-0.0,7.635591E-4,1.5271181E-4,2.9401214,0.009280474,-1.5987929,
1622750245119,1622750245119,9.97149,-0.111266255,-0.2730809,-0.71286637,-0.067306735,-0.69398314,0.075357296,6.1084726E-4,7.635591E-4,3.0542363E-4,2.9291804,0.011153793,-1.5981756,
1622750245219,1622750245219,10.054043,-0.101694964,-0.2204388,-0.71284235,-0.067310326,-0.6940019,0.07540867,-0.0,4.5813544E-4,-1.5271181E-4,2.9175286,0.010112058,-1.5927182,
1622750245319,1622750245319,9.995419,-0.15194423,-0.2623132,-0.7127759,-0.0675399,-0.6940511,0.075378925,-0.0,-3.0542363E-4,3.0542363E-4,2.9241521,0.015194987,-1.5970336,
1622750245418,1622750245419,10.036097,-0.17108682,-0.285045,-0.71267223,-0.06765939,-0.69413066,0.07551925,1.5271181E-4,-3.0542363E-4,3.0542363E-4,2.9266548,0.017038628,-1.5991907,
1622750245519,1622750245519,10.0372925,-0.11724831,-0.2635096,-0.7127054,-0.0675028,-0.6941067,0.07556693,-3.0542363E-4,7.635591E-4,6.1084726E-4,2.9278538,0.011676715,-1.5970434,
1622750245620,1622750245620,10.049257,-0.10887343,-0.21445672,-0.71283215,-0.06734389,-0.6940095,0.075405344,-3.0542363E-4,7.635591E-4,1.5271181E-4,2.9185658,0.010831088,-1.5921336,
1622750245721,1622750245721,10.0061865,-0.148355,-0.23718855,-0.7127946,-0.06747784,-0.6940372,0.0753853,-3.0542363E-4,3.0542363E-4,1.5271181E-4,2.9261696,0.01482108,-1.5944961,
1622750245822,1622750245823,10.00499,-0.14237295,-0.285045,-0.712691,-0.06760445,-0.69411665,0.07551985,1.5271181E-4,-0.0012216945,-9.162709E-4,2.9356701,0.014223463,-1.5992789,
1622750245923,1622750245923,10.019346,-0.10049855,-0.2324029,-0.71264654,-0.067617185,-0.6941512,0.07560999,9.162709E-4,3.0542363E-4,-4.5813544E-4,2.9273207,0.010027417,-1.5939876,
1622750246023,1622750246023,10.062417,-0.104087785,-0.2216352,-0.7127521,-0.06743884,-0.69407094,0.07551162,1.5271181E-4,7.635591E-4,1.5271181E-4,2.9220595,0.010341336,-1.5928189,
1622750246123,1622750246124,10.0672035,-0.16749759,-0.24077778,-0.7127693,-0.067427605,-0.6940576,0.0754816,4.5813544E-4,0.0,0.0010689828,2.9297283,0.016631657,-1.5947088,
1622750246223,1622750246224,9.991829,-0.14476576,-0.26111677,-0.712725,-0.067623995,-0.69408983,0.07542793,-3.0542363E-4,-9.162709E-4,7.635591E-4,2.9324713,0.014482458,-1.5969235,
1622750246324,1622750246324,10.04806,-0.18185452,-0.2623132,-0.7126406,-0.0676315,-0.6941557,0.075612254,-0.0,-4.5813544E-4,3.0542363E-4,2.9298518,0.018090332,-1.5968963,
1622750246424,1622750246425,10.080363,-0.13519448,-0.22881366,-0.7126953,-0.06756263,-0.6941138,0.07554285,-3.0542363E-4,3.0542363E-4,-9.162709E-4,2.9270747,0.01340741,-1.5934914,
1622750246525,1622750246525,10.036097,-0.11964113,-0.25752753,-0.71272933,-0.06749939,-0.694088,0.075515635,-0.0,3.0542363E-4,-4.5813544E-4,2.9288583,0.0119165955,-1.5964508,
1622750246626,1622750246627,9.996614,-0.16031912,-0.24197419,-0.7128338,-0.067407936,-0.6940074,0.07535153,1.5271181E-4,0.0,-1.5271181E-4,2.9240758,0.016031273,-1.5949972,
1622750246727,1622750246727,10.00499,-0.124426775,-0.28384858,-0.71271884,-0.06759287,-0.694095,0.07546611,-7.635591E-4,0.0,6.1084726E-4,2.9290648,0.012430831,-1.5991595,
1622750246828,1622750246828,10.080363,-0.13280165,-0.27667013,-0.7126315,-0.067716025,-0.6941617,0.07556662,-3.0542363E-4,-4.5813544E-4,-4.5813544E-4,2.9279459,0.013168572,-1.5982358,
1622750246927,1622750246928,9.981061,-0.148355,-0.29102704,-0.7128043,-0.06747189,-0.6940297,0.07536804,-0.0,7.635591E-4,6.1084726E-4,2.9274836,0.0148562435,-1.599946,
1622750247028,1622750247028,9.98824,-0.12921242,-0.22642085,-0.7128251,-0.06749945,-0.69401306,0.075299606,-0.0,0.0,-0.0010689828,2.9148839,0.012932411,-1.5934612,
1622750247130,1622750247131,10.0576315,-0.15194423,-0.24436702,-0.7127478,-0.06754094,-0.694073,0.07544148,-3.0542363E-4,-7.635591E-4,0.0010689828,2.9196496,0.015101751,-1.5950882,
1622750247231,1622750247231,10.040882,-0.12083755,-0.28025934,-0.71263176,-0.06772726,-0.6941614,0.07555739,1.5271181E-4,-3.0542363E-4,3.0542363E-4,2.9282887,0.012029289,-1.5987009,
1622750247332,1622750247332,9.952348,-0.14237295,-0.25992036,-0.7126522,-0.06769341,-0.69414586,0.075537756,-3.0542363E-4,-3.0542363E-4,6.1084726E-4,2.9255166,0.0142996125,-1.5969069,
1622750247433,1622750247433,10.014561,-0.11724831,-0.2515455,-0.71275836,-0.06751481,-0.6940651,0.07543808,-3.0542363E-4,3.0542363E-4,-4.5813544E-4,2.928524,0.011703557,-1.595909,
1622750247534,1622750247534,10.109077,-0.10289137,-0.2335993,-0.71274424,-0.06753291,-0.69407594,0.07545579,-7.635591E-4,-4.5813544E-4,-1.5271181E-4,2.9290338,0.01017505,-1.5939001,
1622750247635,1622750247636,10.016953,-0.12801601,-0.25872394,-0.71264195,-0.06765318,-0.6941544,0.0755923,-3.0542363E-4,-4.5813544E-4,-6.1084726E-4,2.9350512,0.012774979,-1.5966192,
1622750247736,1622750247736,9.97149,-0.17706887,-0.25393832,-0.71261257,-0.06772877,-0.6941764,0.07559939,4.5813544E-4,0.0,7.635591E-4,2.9395356,0.017749893,-1.5962572,
1622750247836,1622750247837,10.039685,-0.15553348,-0.25633112,-0.71273255,-0.06759364,-0.6940843,0.07543462,-0.0,3.0542363E-4,-1.5271181E-4,2.9337358,0.015485582,-1.5963225,
1622750247937,1622750247938,10.100702,-0.1794617,-0.23838496,-0.7127722,-0.06750707,-0.6940544,0.07541304,-6.1084726E-4,0.0,3.0542363E-4,2.9322724,0.017760437,-1.5943928,
1622750248038,1622750248038,10.009775,-0.12203395,-0.2204388,-0.71271026,-0.06750797,-0.6941028,0.07555189,-3.0542363E-4,-4.5813544E-4,-9.162709E-4,2.9220343,0.012187919,-1.5928152,
1622750248139,1622750248139,9.946365,-0.124426775,-0.30299118,-0.7126642,-0.06755468,-0.6941382,0.075619094,-3.0542363E-4,3.0542363E-4,-1.5271181E-4,2.9302387,0.012503321,-1.6012495,
1622750248240,1622750248240,10.138988,-0.12921242,-0.22402802,-0.7126806,-0.067595705,-0.6941249,0.075550094,-6.1084726E-4,3.0542363E-4,3.0542363E-4,2.9184833,0.012740316,-1.5928885,
1622750248341,1622750248341,10.014561,-0.13040884,-0.24556342,-0.71272594,-0.067548536,-0.69409,0.07548475,6.1084726E-4,4.5813544E-4,-4.5813544E-4,2.921228,0.013017274,-1.595312,
1622750248442,1622750248442,9.960723,-0.16031912,-0.24915266,-0.7127287,-0.06753165,-0.6940881,0.075491816,1.5271181E-4,-3.0542363E-4,7.635591E-4,2.9187653,0.016088707,-1.5958046,
1622750248543,1622750248543,9.966704,-0.17706887,-0.24795625,-0.71267676,-0.06753748,-0.69412863,0.07560427,-6.1084726E-4,-4.5813544E-4,7.635591E-4,2.9211671,0.017758677,-1.5956696,
1622750248644,1622750248644,10.069596,-0.17467605,-0.26111677,-0.7126662,-0.06759491,-0.69413614,0.075583115,-3.0542363E-4,0.0,6.1084726E-4,2.9227014,0.01733931,-1.5967218,
1622750248744,1622750248745,10.043275,-0.15792629,-0.23838496,-0.71272486,-0.067512535,-0.6940913,0.0755154,-0.0010689828,3.0542363E-4,1.5271181E-4,2.917967,0.01571886,-1.5945276,
1622750248844,1622750248845,9.996614,-0.18664017,-0.25872394,-0.71272343,-0.067572735,-0.6940917,0.07547153,-0.0,4.5813544E-4,1.5271181E-4,2.9263237,0.018661922,-1.5966717,
1622750248945,1622750248945,10.014561,-0.17706887,-0.26949164,-0.7127078,-0.06759237,-0.69410366,0.07549139,4.5813544E-4,0.0,7.635591E-4,2.931384,0.017672904,-1.5976998,
1622750249045,1622750249046,9.996614,-0.12083755,-0.28145576,-0.7126554,-0.067648046,-0.69414395,0.07556597,-0.0,3.0542363E-4,-1.5271181E-4,2.9328833,0.01208247,-1.598944,
1622750249146,1622750249146,10.043275,-0.17467605,-0.24675983,-0.71267825,-0.06757806,-0.6941269,0.07556914,-3.0542363E-4,-3.0542363E-4,1.5271181E-4,2.9291055,0.017385341,-1.595361,
1622750249246,1622750249246,10.060024,-0.1471586,-0.23718855,-0.71272796,-0.06762171,-0.69408756,0.07542306,-3.0542363E-4,3.0542363E-4,1.5271181E-4,2.9290798,0.014622949,-1.5943693,
1622750249347,1622750249347,10.013365,-0.16869399,-0.26470602,-0.712683,-0.067646876,-0.6941224,0.075504646,6.1084726E-4,0.0,7.635591E-4,2.9320679,0.01683941,-1.5972254,
1622750249447,1622750249447,9.990633,-0.15433706,-0.26590243,-0.71263194,-0.06779836,-0.6941604,0.07550132,1.5271181E-4,-3.0542363E-4,0.0013744063,2.9351692,0.015441481,-1.5974052,
1622750249548,1622750249549,10.08156,-0.14117654,-0.25872394,-0.712641,-0.067712285,-0.6941544,0.07554818,-0.0,4.5813544E-4,-9.162709E-4,2.931922,0.013997918,-1.5964538,
1622750249649,1622750249650,10.020543,-0.12323037,-0.24795625,-0.712694,-0.06756262,-0.6941148,0.07554579,-7.635591E-4,0.0,3.0542363E-4,2.9324858,0.01229339,-1.5955361,
1622750249750,1622750249751,9.915258,-0.12323037,-0.2324029,-0.71267676,-0.06763697,-0.6941274,0.07552651,-3.0542363E-4,-9.162709E-4,-1.5271181E-4,2.9300442,0.012424305,-1.594231,
1622750249865,1622750249865,10.061221,-0.101694964,-0.25633112,-0.71267194,-0.06764284,-0.6941311,0.07553278,-7.635591E-4,-3.0542363E-4,-4.5813544E-4,2.9273095,0.010103994,-1.5962679,
1622750249965,1622750249966,10.071989,-0.10049855,-0.23718855,-0.71263117,-0.067722864,-0.69416195,0.07556209,-3.0542363E-4,3.0542363E-4,-1.5271181E-4,2.923419,0.009974928,-1.5943413,
1622750250066,1622750250066,9.957133,-0.11006984,-0.27667013,-0.7126967,-0.067605875,-0.6941122,0.075505935,1.5271181E-4,3.0542363E-4,-6.1084726E-4,2.9307756,0.011049656,-1.5985754,
1622750250167,1622750250167,10.024133,-0.1363909,-0.23718855,-0.712664,-0.06766454,-0.69413704,0.07553373,-0.0,0.0,3.0542363E-4,2.9281926,0.013601607,-1.5944537,
1622750250268,1622750250268,10.06481,-0.15792629,-0.22881366,-0.7126492,-0.06768497,-0.6941483,0.07555108,-6.1084726E-4,-7.635591E-4,1.5271181E-4,2.9290838,0.015685596,-1.5935265,
1622750250368,1622750250369,10.070792,-0.11246266,-0.24077778,-0.71261615,-0.067758,-0.6941732,0.07556848,-6.1084726E-4,-9.162709E-4,-1.5271181E-4,2.9314013,0.011163557,-1.5947003,
1622750250471,1622750250477,9.92483,-0.11844472,-0.2742773,-0.7126599,-0.067644015,-0.6941405,0.07555902,-6.1084726E-4,0.0,-0.00167983,2.938425,0.01192906,-1.5984248,
1622750250578,1622750250578,10.050453,-0.14955142,-0.22402802,-0.71269155,-0.0676602,-0.6941155,0.07547502,-0.0,3.0542363E-4,0.0010689828,2.9268663,0.014875275,-1.593083,
1622750250679,1622750250680,10.093524,-0.11246266,-0.24795625,-0.71269375,-0.06764278,-0.694114,0.07548369,1.5271181E-4,-3.0542363E-4,6.1084726E-4,2.9254007,0.01113824,-1.5953573,
1622750250780,1622750250780,10.085149,-0.14955142,-0.2515455,-0.71266836,-0.0676524,-0.69413376,0.07553334,4.5813544E-4,4.5813544E-4,0.0010689828,2.923259,0.01482318,-1.5957333,
1622750250881,1622750250881,9.9344015,-0.14117654,-0.2635096,-0.7126801,-0.06766343,-0.69412446,0.07549832,-3.0542363E-4,3.0542363E-4,0.0013744063,2.9260104,0.014204924,-1.5973151,
1622750250981,1622750250981,9.997811,-0.15672988,-0.28265217,-0.71268123,-0.067624055,-0.69412404,0.07552654,-0.0,-4.5813544E-4,6.1084726E-4,2.9275315,0.015668875,-1.5990602,
1622750251082,1622750251082,10.002597,-0.104087785,-0.25034907,-0.7126375,-0.06770702,-0.6941572,0.075560234,1.5271181E-4,-3.0542363E-4,3.0542363E-4,2.9258885,0.010402443,-1.5958195,
1622750251183,1622750251184,9.959526,-0.16151553,-0.24795625,-0.71266663,-0.06764932,-0.6941351,0.07553964,-3.0542363E-4,0.0,-1.5271181E-4,2.9291346,0.016210746,-1.5956876,
1622750251283,1622750251284,10.016953,-0.16510476,-0.2216352,-0.712639,-0.06772445,-0.6941558,0.07554328,4.5813544E-4,0.0,7.635591E-4,2.9222074,0.016477007,-1.5929188,
1622750251384,1622750251384,10.070792,-0.15553348,-0.26470602,-0.7126938,-0.06763925,-0.694114,0.07548629,-3.0542363E-4,7.635591E-4,0.0010689828,2.9321527,0.015437457,-1.5970747,
1622750251484,1622750251485,10.045668,-0.1363909,-0.23120649,-0.71267265,-0.067664586,-0.69413024,0.07551417,-3.0542363E-4,3.0542363E-4,-1.5271181E-4,2.9208252,0.0135726575,-1.5938078,
1622750251585,1622750251585,9.994222,-0.11844472,-0.25752753,-0.7126771,-0.067587264,-0.6941277,0.07556449,-6.1084726E-4,-9.162709E-4,-4.5813544E-4,2.9272714,0.011846834,-1.5965582,
1622750251686,1622750251686,10.049257,-0.11006984,-0.26949164,-0.71268755,-0.06766112,-0.6941187,0.07548336,-3.0542363E-4,-7.635591E-4,-1.5271181E-4,2.9283962,0.010948659,-1.597607,
1622750251786,1622750251786,10.032507,-0.11844472,-0.24197419,-0.71268046,-0.067624815,-0.69412464,0.0755277,-7.635591E-4,-3.0542363E-4,-0.0010689828,2.919896,0.011802113,-1.5949106,
1622750251887,1622750251888,9.954741,-0.13399807,-0.24795625,-0.71268773,-0.06763874,-0.6941188,0.07550039,-6.1084726E-4,-3.0542363E-4,-0.00167983,2.9324317,0.013455743,-1.5956995,
1622750251988,1622750251988,9.994222,-0.12562318,-0.2324029,-0.7127209,-0.06765175,-0.6940927,0.07541552,-0.0,-3.0542363E-4,-4.5813544E-4,2.9249709,0.012565523,-1.5940459,
1622750252088,1622750252089,10.044471,-0.14237295,-0.23718855,-0.7126909,-0.0676287,-0.6941164,0.075501084,-6.1084726E-4,0.0,-1.5271181E-4,2.9279928,0.014169362,-1.5944058,
1622750252190,1622750252191,10.116256,-0.13758731,-0.2228316,-0.71268696,-0.06766957,-0.694119,0.07547803,1.5271181E-4,-7.635591E-4,-1.5271181E-4,2.9285553,0.013596479,-1.5928198,
1622750252292,1622750252292,10.022936,-0.051445685,-0.25393832,-0.7126342,-0.06762076,-0.6941608,0.075635046,-6.1084726E-4,-7.635591E-4,-6.1084726E-4,2.9200766,0.005131104,-1.5961267,
1622750252392,1622750252393,9.978668,-0.14356937,-0.28265217,-0.7126211,-0.067674585,-0.6941704,0.07562256,-0.0,3.0542363E-4,-1.5271181E-4,2.9299517,0.014380867,-1.5991144,
1622750252493,1622750252494,10.014561,-0.101694964,-0.37956148,-0.71272445,-0.067616105,-0.69409037,0.07543531,4.5813544E-4,-0.002443389,6.1084726E-4,2.945295,0.010147076,-1.6086792,
1622750252594,1622750252594,10.031311,-0.15314065,-0.4621139,-0.71278906,-0.06754213,-0.6940408,0.07534752,6.1084726E-4,-0.0029015245,6.1084726E-4,2.959219,0.01524891,-1.616831,
1622750252695,1622750252695,10.089935,-0.14476576,-0.48006004,-0.7137071,-0.06636438,-0.6933348,0.07419441,1.5271181E-4,-3.0542363E-4,7.635591E-4,2.965048,0.014330349,-1.6183386,
1622750252795,1622750252795,10.025329,-0.13160525,-0.47168517,-0.7145177,-0.06538343,-0.69270664,0.07312284,1.5271181E-4,-0.0015271181,1.5271181E-4,2.9654238,0.013112018,-1.617811,
1622750252896,1622750252897,9.952348,-0.10767702,-0.47527438,-0.71581304,-0.06379735,-0.6916951,0.07141103,1.5271181E-4,-7.635591E-4,6.1084726E-4,2.9516168,0.010806522,-1.6185151,
1622750252996,1622750252997,9.987043,-0.14356937,-0.4549354,-0.7164853,-0.063025095,-0.6911656,0.07047479,-3.0542363E-4,9.162709E-4,-4.5813544E-4,2.9424193,0.014359684,-1.6163174,
1622750253096,1622750253097,10.014561,-0.13878371,-0.4429713,-0.71743524,-0.061769955,-0.6904144,0.06927524,-0.0,9.162709E-4,3.0542363E-4,2.9293368,0.013843771,-1.6150002,
1622750253196,1622750253197,10.0061865,-0.14117654,-0.44536412,-0.7178,-0.061273936,-0.6901246,0.068823464,1.5271181E-4,-3.0542363E-4,-4.5813544E-4,2.9210563,0.014094037,-1.6152759,
1622750253299,1622750253299,9.989436,-0.15194423,-0.45254257,-0.7184201,-0.060573503,-0.68962884,0.06793701,1.5271181E-4,-9.162709E-4,3.0542363E-4,2.9245732,0.01519374,-1.6160675,
1622750253400,1622750253400,10.071989,-0.12323037,-0.42382872,-0.7185629,-0.060409013,-0.6895144,0.06773483,-6.1084726E-4,4.5813544E-4,0.0013744063,2.9141603,0.0122235315,-1.6128515,
1622750253499,1622750253500,10.095917,-0.16390835,-0.4884349,-0.719105,-0.059722986,-0.68907917,0.06701497,-6.1084726E-4,4.5813544E-4,3.0542363E-4,2.921523,0.016214725,-1.6191381,
1622750253600,1622750253600,10.022936,-0.17228323,-0.4549354,-0.7193219,-0.05936874,-0.6889051,0.06679112,4.5813544E-4,-9.162709E-4,-1.5271181E-4,2.9178483,0.017169533,-1.6161547,
1622750253701,1622750253702,9.995419,-0.069391854,-0.7196414,-0.71997553,-0.05854755,-0.688377,0.065912805,-7.635591E-4,-0.004886778,-0.00167983,2.9499993,0.006924332,-1.6426694,
1622750253802,1622750253803,10.143773,-0.2213361,-0.8787641,-0.72064507,-0.057625674,-0.6878337,0.065074526,-6.1084726E-4,-0.0056503373,-0.0045813546,2.9753263,0.021735055,-1.6572114,
1622750253903,1622750253903,10.116256,-0.17228323,-1.1279168,-0.7231218,-0.054438613,-0.6857977,0.061747696,-6.1084726E-4,-0.008093726,-0.0021379655,3.0136278,0.016923843,-1.6818333,
1622750254004,1622750254004,9.993026,-0.124426775,-1.334896,-0.7252084,-0.051814836,-0.6840512,0.058837995,-0.0010689828,-0.012980504,-0.0045813546,3.042344,0.012341106,-1.7035929,
1622750254104,1622750254104,9.978668,-0.11365908,-1.5873387,-0.7304766,-0.044875532,-0.67951137,0.051520836,-0.0012216945,-0.013133216,-0.0035123718,3.0738761,0.011248298,-1.7285478,
1622750254206,1622750254206,9.917651,-0.12801601,-1.7814565,-0.73374325,-0.040536035,-0.6765975,0.046834342,-0.0010689828,-0.0077883024,-4.5813544E-4,3.1032472,0.012703883,-1.7485259,
1622750254306,1622750254307,9.902099,-0.13519448,-1.9704895,-0.74043655,-0.031210948,-0.67037237,0.037154946,-0.0012216945,-0.003970507,-0.0010689828,3.130277,0.013389756,-1.7672274,
1622750254408,1622750254408,9.966704,-0.111266255,-2.0805593,-0.74382466,-0.026193526,-0.6670807,0.032281898,-0.0018325418,-0.0036650836,1.5271181E-4,-3.131566,0.010927791,-1.7765919,
1622750254508,1622750254508,10.0349,-0.11246266,-2.1451654,-0.7472341,-0.020984607,-0.663666,0.027354067,-6.1084726E-4,-0.0051922016,-1.5271181E-4,-3.123701,0.010959099,-1.781397,
1622750254609,1622750254610,10.030114,-0.10049855,-2.4158535,-0.7536792,-0.010698873,-0.65690994,0.017958572,6.1084726E-4,-0.006872032,-0.0018325418,-3.081559,0.009740798,-1.8071543,
1622750254711,1622750254712,9.957133,-0.0741775,-2.5007987,-0.7598055,-2.5974057E-4,-0.6500874,0.009046857,1.5271181E-4,-0.0061084726,-0.004123219,-3.0553398,0.00722516,-1.8168632,
1622750254813,1622750254814,9.860224,-0.10049855,-2.4888346,-0.76275486,0.0048873825,-0.6466527,0.004633206,-0.0019852535,-0.0077883024,-0.0030542363,-3.0509531,0.009882048,-1.8180435,
1622750254914,1622750254914,9.847063,-0.08135597,-2.4912274,0.7682542,-0.014569795,0.6399665,0.0040098513,4.5813544E-4,-0.00335966,0.0015271181,-3.0464506,0.008009429,-1.818589,
1622750255014,1622750255015,9.951151,-0.13399807,-2.5175486,0.7707597,-0.019178566,0.63678765,0.007950078,0.0029015245,0.004123219,0.0022906773,-3.0436525,0.013053557,-1.8185878,
1622750255115,1622750255115,9.970294,-0.08255238,-2.4421747,0.7729409,-0.023294855,0.6339481,0.011380225,-3.0542363E-4,0.0056503373,-0.0010689828,-3.0593534,0.00804192,-1.8110118,
1622750255215,1622750255216,9.918848,-0.04546363,-2.2232313,0.7759746,-0.02941132,0.6298789,0.01584518,-0.0018325418,3.0542363E-4,0.0010689828,-3.0946915,0.0044725556,-1.7912941,
1622750255316,1622750255317,9.959526,-0.1268196,-2.1308086,0.777387,-0.03225381,0.62793684,0.018012924,0.0012216945,0.0029015245,0.00503949,-3.1116247,0.012451064,-1.7815655,
1622750255417,1622750255417,9.904491,-0.06460621,-1.8711873,0.7775223,-0.032594733,0.62774825,0.018130122,0.002443389,0.0061084726,0.0030542363,3.1272473,0.006409451,-1.7575186,
1622750255518,1622750255519,10.12822,-0.17706887,-1.6606189,0.7773728,-0.032279782,0.6279559,0.017916482,-0.003206948,0.004123219,0.0019852535,3.0762198,0.017250655,-1.73331,
1622750255619,1622750255620,9.951151,-0.15672988,-1.672583,0.7758795,-0.029489169,0.63000476,0.01534194,-0.005497625,9.162709E-4,0.0062611843,3.0745862,0.015530808,-1.7373192,
1622750255720,1622750255720,10.119845,-0.21774685,-1.5179468,0.77362895,-0.02505725,0.6330317,0.011885194,1.5271181E-4,0.006413896,0.008093726,3.043334,0.021275561,-1.7196834,
1622750255821,1622750255822,10.138988,-0.29192436,-1.7036897,0.7723072,-0.02250505,0.634774,0.009850884,1.5271181E-4,0.0061084726,0.0056503373,3.072669,0.028386563,-1.7372746,
1622750255923,1622750255923,10.054043,-0.25244278,-1.3995022,0.770909,-0.020095378,0.63658535,0.007381717,-0.0027488125,0.004123219,0.0015271181,3.032728,0.024863685,-1.7091056,
1622750256024,1622750256025,9.84467,0.06699903,-1.1614163,0.7689344,-0.017015971,0.6390911,0.0035955887,-0.004428643,-0.003206948,-0.00671932,2.991357,-0.006758641,-1.6882277,
1622750256126,1622750256127,9.932009,0.0071784677,-1.7060826,0.7671861,-0.014062504,0.6412701,6.200538E-4,-0.0036650836,-0.0015271181,-0.0029015245,3.0721383,-7.1232783E-4,-1.7409123,
1622750256227,1622750256228,10.01815,-0.05383851,-1.5418751,-0.7661894,0.011972629,-0.6425031,5.5764854E-4,-0.0030542363,0.004123219,0.0015271181,3.0435066,0.005311506,-1.7235062,
1622750256328,1622750256329,9.966704,0.04546363,-1.631606,-0.7656388,0.010843168,-0.6431781,0.0012308953,-0.0035123718,0.010689827,0.0019852535,3.0603278,-0.0045015984,-1.7330626,
1622750256430,1622750256431,10.321141,-0.27996024,-1.3540385,-0.7640992,0.007618573,-0.64504683,0.0030106427,-0.003206948,4.5813544E-4,0.0035123718,3.0223315,0.026887996,-1.7012421,
1622750256531,1622750256532,9.732208,-0.019142581,-1.4904294,-0.76220393,0.0045019924,-0.64729226,0.0061314553,-0.0061084726,-0.010231691,-0.0021379655,3.053512,0.0019442611,-1.7227597,
1622750256632,1622750256632,10.097114,-0.4139583,-1.4234303,-0.761783,0.0040537994,-0.6477808,0.007090839,-0.002443389,-0.0061084726,0.0076355906,3.040148,0.04057399,-1.7108474,
1622750256733,1622750256733,10.107881,-0.26679972,-1.7204394,-0.76141226,0.0033101651,-0.6482157,0.007534845,-0.0012216945,-3.0542363E-4,-6.1084726E-4,3.0821035,0.026015114,-1.7393883,
1622750256833,1622750256834,9.928419,0.03589234,-1.8831514,-0.7611063,0.0033172136,-0.6485616,0.008600789,-0.004886778,-0.0015271181,-0.011147963,3.1055272,-0.0035517716,-1.7582425,
1622750256933,1622750256934,9.865009,-0.0011964113,-1.5861423,-0.760985,0.0030144097,-0.64870447,0.008677452,-0.003970507,0.0019852535,0.0071774554,3.0617127,1.19740405E-4,-1.7302166,
1622750257033,1622750257034,10.103095,-0.23090738,-1.6689938,-0.7620111,0.0046218922,-0.64751023,0.006942721,-0.0019852535,0.004123219,1.5271181E-4,3.0685647,0.022545677,-1.734514,
1622750257134,1622750257134,10.075578,0.009571291,-1.576571,-0.7620873,0.004318085,-0.647429,0.0063298224,-0.0036650836,-3.0542363E-4,0.0047340663,3.053237,-9.385291E-4,-1.7260122,
1622750257235,1622750257235,10.176375,-0.20578274,-1.7527425,-0.76239145,0.005395536,-0.64706105,0.006496452,-0.006413896,-0.0036650836,0.01007898,3.0789187,0.01992555,-1.7413594,
1622750257335,1622750257335,9.847063,-0.11844472,-1.6953149,-0.76237893,0.0049857413,-0.64708316,0.0060714064,-0.0036650836,-0.0045813546,0.0013744063,3.079107,0.011853478,-1.7412895,
1622750257436,1622750257437,10.143773,-0.32063824,-1.8041883,-0.7635123,0.007344755,-0.6457337,0.004786784,0.0012216945,-0.004123219,0.008399149,3.0981948,0.031110905,-1.7468172,
1622750257537,1622750257537,10.214661,0.07298109,-1.9058832,-0.7638582,0.00804144,-0.6453193,0.0043642544,-0.0035123718,-0.0045813546,-0.0070247436,3.1079805,-0.0070234137,-1.7552583,
1622750257638,1622750257638,9.977472,-0.15314065,-1.9010975,-0.764959,0.01027333,-0.6439899,0.003023393,-0.003206948,-7.635591E-4,-0.0021379655,3.136018,0.015076246,-1.7590784,
1622750257739,1622750257740,9.61137,-0.1052842,-2.0482562,-0.76565516,0.011181471,-0.6431522,0.0015714312,-0.0030542363,-0.0051922016,-0.0022906773,-3.110124,0.010713144,-1.780763,
1622750257840,1622750257841,10.182358,-0.37328035,-2.5235305,0.7678256,-0.015179883,0.64047694,0.0016539779,-0.0018325418,-0.0077883024,6.1084726E-4,-3.0595865,0.035568014,-1.813735,
1622750257941,1622750257941,9.8219385,-0.24885355,-2.4661028,0.7695426,-0.018079704,0.63832295,0.004605522,-3.0542363E-4,-0.013896775,-0.0013744063,-3.0500643,0.024568807,-1.8167922,
1622750258042,1622750258042,9.9344015,-0.26799613,-2.6886353,0.773144,-0.024953699,0.63365954,0.010061449,-0.0012216945,-0.006413896,-9.162709E-4,-3.0252852,0.026033897,-1.8351035,
1622750258143,1622750258144,9.92483,-0.19860429,-2.4469602,0.77550143,-0.029753666,0.63050157,0.013417086,0.0013744063,0.0070247436,-0.005497625,-3.0537317,0.019426603,-1.8125247,
1622750258245,1622750258246,9.879367,-0.047856454,-2.3991039,0.77873755,-0.035833754,0.6260389,0.018948933,0.00335966,0.006413896,0.006413896,-3.0347471,0.0047072377,-1.8090247,
1622750258346,1622750258346,10.123434,-0.5590232,-2.414657,0.77950543,-0.03727296,0.62495536,0.020317474,0.00335966,-0.002443389,0.007482879,-3.0432968,0.053662315,-1.8049428,
1622750258445,1622750258446,9.61137,-0.35533416,-2.559423,0.78024614,-0.03824941,0.6239058,0.022237295,0.00167983,-0.0019852535,-0.004123219,-2.9980092,0.03571004,-1.8310481,
1622750258546,1622750258546,10.213465,-0.42981076,-2.699403,0.7807091,-0.0396767,0.62323505,0.02229657,0.0025961008,-0.004428643,-4.5813544E-4,-3.0091114,0.040663294,-1.8291864,
1622750258647,1622750258648,10.357034,-0.03708875,-2.439782,0.78155124,-0.041260548,0.62201804,0.023849653,0.00167983,-0.003970507,0.0018325418,-3.051093,0.0034856002,-1.8021462,
1622750258748,1622750258749,9.594321,0.06699903,-2.3596222,0.78199047,-0.042370427,0.6213751,0.024262318,9.162709E-4,-0.0012216945,-0.0071774554,-3.039745,-0.0067810216,-1.8119496,
1622750258849,1622750258849,10.0265255,-0.15314065,-3.2165518,0.782493,-0.04343664,0.62063783,0.025032815,0.0061084726,0.0,0.0019852535,-2.9483798,0.0145424735,-1.8812286,
1622750258950,1622750258950,10.319945,-0.3397808,-2.774777,0.7830753,-0.044361904,0.61978126,0.026388329,0.0030542363,4.5813544E-4,-0.0030542363,-3.015896,0.031784713,-1.8334595,
1622750259050,1622750259050,9.885348,0.0,-2.6659036,0.7837548,-0.046179574,0.6187664,0.026905945,-0.0047340663,-0.0027488125,-0.00503949,-3.0159545,-0.0,-1.8342121,
1622750259151,1622750259151,9.987043,-0.26081768,-2.300998,0.7841817,-0.04715397,0.61812645,0.02748179,-0.0018325418,-0.008246438,-0.005955761,-3.074069,0.02544339,-1.797243,
1622750259251,1622750259252,10.116256,-0.13878371,-2.8480573,0.7854198,-0.04997819,0.6162517,0.029183364,-0.0036650836,-4.5813544E-4,-0.00335966,-3.0077007,0.0132047525,-1.8452258,
1622750259352,1622750259352,9.796814,-0.2548356,-2.4505496,0.78587115,-0.050785374,0.6155634,0.030150825,-0.0015271181,0.015882028,0.0018325418,-3.056222,0.025229266,-1.8159043,
1622750259453,1622750259454,10.154541,-0.069391854,-2.0063818,0.7866682,-0.052495696,0.6143357,0.031448692,-0.0018325418,0.016187452,-0.008704574,-3.1363251,0.006703871,-1.7658684,
1622750259554,1622750259554,10.075578,-0.16869399,-2.2878375,0.78613484,-0.051581267,0.61515665,0.0302281,-0.0012216945,-0.0045813546,0.0019852535,-3.099232,0.016325785,-1.7940779,
1622750259653,1622750259654,10.269695,-0.24047868,-1.9154545,0.7857363,-0.050069973,0.61577296,0.030579105,-0.002443389,-0.0053449133,0.007941014,3.1284072,0.0230153,-1.7551928,
1622750259754,1622750259754,9.744172,-0.0035892338,-1.8317057,0.78534645,-0.048900086,0.61637026,0.030454278,1.5271181E-4,0.010689827,0.0132859275,3.129822,3.6200625E-4,-1.7566075,
1622750259861,1622750259861,10.324731,-0.33140594,-1.3743775,0.78388536,-0.0459958,0.6185756,0.027792733,-0.0018325418,0.023212196,0.008399149,3.0601916,0.03180687,-1.7031335,
1622750259962,1622750259962,10.389337,-0.10049855,-1.7982062,0.781873,-0.041846734,0.62154996,0.02447755,-0.0022906773,0.007330167,0.0010689828,3.1139452,0.009531235,-1.7421803,
1622750260063,1622750260064,10.342677,-0.08255238,-1.855634,0.7769825,-0.03242998,0.6284814,0.016050402,-7.635591E-4,-0.0019852535,0.0010689828,3.1231387,0.007856117,-1.7483228,
1622750260164,1622750260164,10.154541,-0.12323037,-1.7515461,0.77533776,-0.029223707,0.6307271,0.013438914,-0.003206948,-0.01343864,-1.5271181E-4,3.1015363,0.011958324,-1.7416046,
1622750260264,1622750260265,9.865009,-0.22013968,-1.7383857,0.7730824,-0.02541203,0.6337292,0.00922785,-0.0010689828,-0.002443389,0.009315421,3.1043694,0.02197306,-1.7452229,
1622750260365,1622750260365,10.219446,-0.014356935,-1.6471593,0.7723268,-0.023493286,0.6347316,0.00866918,-0.003970507,0.0053449133,-0.0013744063,3.0819864,0.0013869633,-1.7306008,
1622750260466,1622750260466,9.888938,-0.41904306,-2.1008983,0.7716519,-0.022554398,0.63560426,0.0071973265,-0.0019852535,0.008857286,-0.0010689828,-3.1251469,0.041426126,-1.7801332,
1622750260567,1622750260568,9.853045,0.124426775,-2.3045874,0.77117616,-0.0217392,0.63621867,0.006362868,-3.0542363E-4,-0.01099525,-0.009620844,-3.0792804,-0.012295764,-1.8005618,
1622750260668,1622750260668,9.978668,-0.30388847,-2.2208385,0.7707992,-0.021201864,0.63670087,0.0055711893,0.0021379655,-0.009315421,0.0025961008,-3.0973246,0.029717745,-1.7897859,
1622750260768,1622750260769,10.009775,-0.15792629,-2.2567308,0.7712586,-0.021416666,0.63612205,0.007088563,4.5813544E-4,0.00335966,0.00503949,-3.089777,0.015389687,-1.7925416,
1622750260869,1622750260870,10.045668,-0.67148584,-2.2435703,0.77212256,-0.023011979,0.6350003,0.008471741,-0.0,0.012980504,0.009926268,-3.0960424,0.065143846,-1.7905275,
1622750260970,1622750260971,9.590733,0.029910283,-1.5490535,0.77228,-0.023448024,0.634792,0.008541169,-0.0022906773,0.006566608,-0.0030542363,3.10103,-0.0030787555,-1.730929,
1622750261072,1622750261072,10.122238,-0.23449662,-1.7156538,0.77274483,-0.02447955,0.63417965,0.0090736,-0.0012216945,-0.003970507,0.0015271181,3.1184237,0.022836747,-1.7386942,
1622750261173,1622750261173,10.196714,-0.29192436,-2.4804597,0.7732336,-0.025480049,0.6335342,0.009745236,0.0018325418,-0.008093726,0.0030542363,-3.0639114,0.027810838,-1.8094221,
1622750261274,1622750261274,9.605389,-0.17228323,-2.37039,0.7742278,-0.027401634,0.63221306,0.011274787,4.5813544E-4,-0.0019852535,0.0027488125,-3.0550647,0.01741194,-1.8127394,
1622750261375,1622750261375,9.826724,-0.14476576,-2.315355,0.7750568,-0.029099967,0.6310985,0.012444376,-6.1084726E-4,0.0029015245,0.004275931,-3.0736446,0.014338211,-1.8021941,
1622750261476,1622750261476,10.088738,-0.37447673,-2.2818556,0.7767601,-0.032693867,0.62877417,0.014760127,-0.0010689828,-0.0045813546,-0.0029015245,-3.0880902,0.036188,-1.7932322,
1622750261577,1622750261578,10.019346,-0.3062813,-2.3057837,0.77725667,-0.03324334,0.6280981,0.01611742,-0.0012216945,-0.009773556,-0.0047340663,-3.084319,0.029781492,-1.7969912,
1622750261678,1622750261678,10.168001,-0.3182454,-2.4661028,0.7784773,-0.036118153,0.6263901,0.017434645,-0.0,-0.019547112,0.0013744063,-3.0755858,0.030407513,-1.8087375,
1622750261779,1622750261780,9.715458,0.1905285,-2.9509485,0.7795378,-0.03800583,0.6248987,0.019442882,0.0021379655,-0.009468133,-1.5271181E-4,-2.9867156,-0.018762184,-1.8656784,
1622750261879,1622750261880,9.835099,-0.6092725,-2.670689,0.7808592,-0.040798713,0.62300646,0.021385968,-0.002443389,0.017103724,6.1084726E-4,-3.0424814,0.059712756,-1.8359492,
1622750261979,1622750261980,9.684352,-0.5626124,-2.3105693,0.78111696,-0.04123122,0.62263584,0.021929428,-0.0061084726,0.039094225,0.0013744063,-3.0847168,0.056448862,-1.8050057,
1622750262080,1622750262081,9.6376915,0.124426775,-1.582553,0.7820827,-0.04362502,0.62122434,0.02288645,-0.002443389,0.030847786,0.008857286,3.0946724,-0.012739135,-1.7335485,
1622750262181,1622750262182,11.300404,-0.6092725,-1.3121641,0.78180754,-0.042523727,0.62163496,0.023209367,0.0013744063,-0.027335415,-0.013591352,3.0372708,0.05350504,-1.6863952,
1622750262282,1622750262283,10.074382,-0.148355,-1.9609182,0.7810295,-0.040641498,0.62276864,0.02237063,-0.009162709,-0.04718795,-0.029167956,-3.1396134,0.014453688,-1.7630366,
1622750262384,1622750262384,9.077472,-0.08853444,-1.3229318,0.7817424,-0.041684613,0.62173927,0.024113458,-0.010384403,-0.0056503373,-0.024128467,3.069016,0.009650949,-1.7155154,
1622750262484,1622750262484,9.630513,-0.17467605,-1.9202402,0.7820585,-0.04187404,0.62128216,0.025290173,-0.0010689828,0.03298575,-0.03634541,-3.1338067,0.01778575,-1.7676065,
1622750262584,1622750262585,9.337093,-0.29312077,-1.8580267,0.78127414,-0.040873263,0.6222823,0.026547976,-0.004886778,0.01267508,-0.03634541,-3.129996,0.030779734,-1.7672246,
1622750262684,1622750262685,8.806784,0.60329044,-2.5929224,0.78053594,-0.03976392,0.62318593,0.028665897,0.002443389,-0.01007898,-0.018172706,-2.959743,-0.06561956,-1.8571291,
1622750262785,1622750262785,9.94158,0.0023928226,-2.6635108,0.7806405,-0.03744853,0.6232432,0.02767625,0.007482879,0.0056503373,0.016492875,-3.0022752,-2.3248902E-4,-1.832565,
1622750262886,1622750262886,9.97508,0.29341987,-2.0745773,0.7806941,-0.03923187,0.6229951,0.02923556,0.008704574,0.02443389,0.014813046,-3.0616567,-0.028791087,-1.7758492,
1622750262986,1622750262986,10.094721,-0.38165522,-1.5023935,0.78001946,-0.0383457,0.62397414,0.027486863,-0.0,0.015423893,-0.005955761,3.1401458,0.0373781,-1.7185415,
1622750263086,1622750263087,10.589137,-0.05383851,-1.2643076,0.7791103,-0.036052544,0.6252775,0.026745971,-0.0010689828,-0.016645588,-0.0062611843,3.105601,0.005048415,-1.6896304,
1622750263187,1622750263187,10.316356,0.45852464,-2.3321047,0.77920675,-0.03607395,0.62513894,0.027143128,0.004275931,-0.043064732,-0.011911522,-3.0224278,-0.04332534,-1.7931185,
1622750263288,1622750263288,9.765707,0.076570325,-2.4158535,0.7796903,-0.037047256,0.6244457,0.02789436,0.0045813546,-0.0021379655,-0.033138465,-3.0001605,-0.007611151,-1.8133088,
1622750263389,1622750263390,9.375379,-0.1052842,-2.0422742,0.78009987,-0.037294906,0.6238511,0.029378133,0.009773556,0.04566083,-0.04382829,-3.0484214,0.010972105,-1.7852795,
1622750263490,1622750263490,9.7501545,0.3915256,-1.9872392,0.7794197,-0.03524575,0.62482345,0.029296946,-0.0030542363,0.03466558,-0.041690327,-3.0612953,-0.039326612,-1.7718586,
1622750263591,1622750263592,10.76172,0.6870392,-1.6857436,0.77781045,-0.03344602,0.6268088,0.03166945,-0.0012216945,0.021226943,-0.027488127,-3.1286144,-0.06298848,-1.7261763,
1622750263693,1622750263693,10.880164,-0.55782676,-1.0211371,0.7775,-0.033014208,0.6271658,0.03266448,6.1084726E-4,-0.02535016,0.0013744063,3.0831246,0.051001474,-1.6643753,
1622750263794,1622750263794,9.026923,0.7256235,-3.4274194,0.778145,-0.0343326,0.6261887,0.034631945,0.00167983,-0.040010497,-0.029778805,-2.8112874,-0.07500876,-1.9336711,
1622750263895,1622750263895,9.320343,1.096511,-0.55453664,0.77864826,-0.03369569,0.6255976,0.03462866,0.01343864,0.07375981,0.048256934,3.0050125,-0.1169039,-1.6302238,
1622750263996,1622750263996,10.193126,0.14237295,-1.1243275,0.77715355,-0.03516199,0.62740964,0.03395751,4.5813544E-4,0.019088976,0.025961008,3.0957687,-0.013882453,-1.6806548,
1622750264097,1622750264098,10.055239,0.11365908,-2.3644078,0.7761916,-0.03528465,0.62864137,0.033039484,-0.0071774554,-0.044744562,0.027946262,-3.0256135,-0.01100292,-1.8017428,
1622750264198,1622750264198,9.809975,0.39511484,-2.1702902,0.7767671,-0.035301253,0.6280253,0.031160468,0.006566608,-0.031458635,0.055739813,-3.0320728,-0.0393057,-1.7885225,
1622750264299,1622750264300,10.391729,-0.086141616,-1.7838492,0.7773927,-0.03660282,0.6272325,0.030004755,0.009468133,0.011453386,0.04963134,-3.1042433,0.008169759,-1.7407999,
1622750264400,1622750264401,10.883754,-0.4549354,-1.5299109,0.77693945,-0.03871064,0.62778187,0.02750521,6.1084726E-4,-7.635591E-4,-0.010384403,3.1357648,0.041368928,-1.7104496,
1622750264502,1622750264503,10.181161,0.07058827,-1.8436699,0.77668536,-0.0379131,0.62818134,0.02665739,-0.002443389,-0.028862532,-0.025808297,-3.098101,-0.006822162,-1.7499413,
1622750264605,1622750264605,10.040882,0.106480606,-1.6124634,0.77692395,-0.036886036,0.6279558,0.026459692,0.005497625,-0.026571855,0.019852536,-3.1324272,-0.0104701705,-1.7300266,
1622750264706,1622750264706,9.604192,-0.05383851,-1.7575282,0.77706707,-0.038323235,0.6276701,0.026987754,0.010689827,-0.0036650836,0.017256435,-3.1025867,0.0055141067,-1.7517897,
1622750264807,1622750264807,9.926026,-0.07537391,-1.0378869,0.77435213,-0.031193161,0.63163185,0.021141825,0.0029015245,0.009009997,0.0015271181,3.065848,0.007552245,-1.6749799,
1622750264908,1622750264908,9.72144,0.37836507,-0.89312106,0.7733518,-0.029227765,0.6329962,0.019712154,0.0021379655,0.006872032,-0.007482879,3.0392315,-0.038738072,-1.6624104,
1622750265007,1622750265008,9.835099,0.051445685,-0.846461,0.76988494,-0.02287684,0.63761145,0.014333438,0.0053449133,0.02519745,0.015423893,3.0329504,-0.0052115126,-1.6566501,
1622750265108,1622750265109,10.571192,-0.28235307,-0.5063811,0.7672966,-0.017379876,0.64095443,0.011458629,-0.0,0.008246438,-0.019699825,2.9821362,0.026672754,-1.6186618,
1622750265209,1622750265209,10.620244,-0.09451649,-1.7048861,0.7642056,-0.01134108,0.64482933,0.0075063016,0.0018325418,-0.038177952,-0.016340164,3.1388083,0.008786923,-1.72997,
1622750265309,1622750265310,9.410074,0.42023948,-0.99960166,0.76431704,-0.011319036,0.64469236,0.007940856,0.010384403,-0.020310672,-0.0132859275,3.0465796,-0.044379454,-1.6766262,
1622750265410,1622750265411,9.965508,-0.32063824,-1.6630118,0.76471484,-0.01166159,0.64420074,0.008979573,0.013896775,0.01343864,0.009620844,3.1335876,0.0317253,-1.7361494,
1622750265512,1622750265512,9.544072,0.29461628,-1.2056835,0.7644564,-0.0112934625,0.64452064,0.008483479,-6.1084726E-4,0.019088976,-0.0030542363,3.062137,-0.03061606,-1.6964587,
1622750265612,1622750265613,10.148559,0.3364907,-1.3743775,0.76367617,-0.009643719,0.64548206,0.0076574157,-0.01175881,0.0019852535,-0.004123219,3.0698256,-0.03284476,-1.7054033,
1622750265713,1622750265714,9.622138,-0.22612174,-0.7328019,0.76339155,-0.008988169,0.64583087,0.007423824,-0.0051922016,0.0070247436,0.030389652,2.9924717,0.023428014,-1.6468076,
1622750265814,1622750265814,10.8251295,-0.3900301,-0.7052845,0.7629138,-0.009034887,0.6464125,0.0056392592,0.006566608,0.0021379655,0.02275406,2.9778976,0.035938356,-1.6358569,
1622750265915,1622750265915,10.755738,-0.42622152,-1.5861423,0.7610115,-0.0066204523,0.64870214,0.0017852566,-0.0030542363,-0.013744064,-0.023823043,3.0910027,0.039183307,-1.7172104,
1622750266015,1622750266016,10.220643,-0.23688944,-1.1913266,0.76104987,-0.006168658,0.6486594,0.002454859,-0.004428643,-0.01267508,-0.03115321,3.043871,0.023017617,-1.6868335,
1622750266116,1622750266117,9.362218,0.13399807,-1.9106688,0.7611431,-0.0058891294,0.6485498,0.0031149336,-0.0047340663,-0.004123219,-0.005955761,-3.1162007,-0.01402266,-1.7721146,
1622750266217,1622750266217,9.22822,-0.4429713,-1.442573,0.7606518,-0.0048306365,0.6491367,0.0026453582,-0.003206948,0.039857782,0.02275406,3.0975459,0.04739034,-1.7258632,
1622750266318,1622750266318,9.424431,0.18813568,-0.9457632,0.7599325,-0.003945537,0.64998895,0.001179911,-0.008857286,0.0219905,0.040926766,3.0110788,-0.019860176,-1.6708138,
1622750266418,1622750266418,10.470693,-0.2105684,-1.5251254,-0.75893265,0.0034454004,-0.65115786,0.0016760839,-0.01007898,0.004428643,0.028862532,3.0869195,0.019897647,-1.7154357,
1622750266519,1622750266519,10.968699,-0.6260222,-1.3564314,-0.75876987,0.0038194542,-0.65134215,0.002660634,-0.0010689828,-0.029778805,0.034818295,3.0716047,0.056581594,-1.6938355,
1622750266620,1622750266621,10.826326,0.16301104,-1.5993029,-0.75936407,0.00596048,-0.65063125,0.0031125275,0.0029015245,-0.029320668,-0.020616096,3.1213055,-0.014894163,-1.7174591,
1622750266721,1622750266722,9.989436,-0.008374879,-1.9848464,-0.75976735,0.0065415055,-0.6501577,0.0024137988,0.009468133,-0.02687728,-0.019241689,-3.0770278,8.222985E-4,-1.7669363,
1622750266821,1622750266822,9.576375,0.15463616,-1.6363916,-0.7603284,0.006822589,-0.64950246,8.2065247E-4,0.00503949,0.009773556,-0.036803547,-3.1071928,-0.015915617,-1.7400397,
1622750266922,1622750266923,9.144471,-0.32542387,-1.5191432,-0.7601103,0.0057270657,-0.6497687,2.92688E-4,0.0070247436,0.03298575,0.0025961008,-3.1230228,0.03509141,-1.7354199,
1622750267022,1622750267023,9.695119,0.08973085,-1.2391831,-0.7589818,0.003207738,-0.6511028,0.0012331167,-0.0018325418,0.02519745,-0.019699825,3.1025317,-0.009180317,-1.6979222,
1622750267123,1622750267123,10.598709,0.06460621,-0.9062816,-0.75861603,0.002395974,-0.65153176,0.0015410582,0.010231691,-0.048104223,0.024281178,3.044884,-0.0060734297,-1.6560975,
1622750267223,1622750267223,10.617851,0.24197419,-0.84765744,-0.75928545,0.004067484,-0.6507439,0.0011923747,0.009773556,-0.031764057,0.02107423,3.030871,-0.022713192,-1.6504606,
1622750267324,1622750267325,10.832308,-0.07776674,-1.6244274,-0.7597683,0.0053034886,-0.6501715,9.746972E-4,0.01099525,-0.004886778,0.0030542363,-3.140982,0.007099641,-1.7196485,
1622750267425,1622750267426,10.261321,-0.3182454,-1.4042878,-0.76023924,0.006452582,-0.64961076,6.957784E-4,0.007482879,0.014965758,-0.011147963,3.1240728,0.030718004,-1.706804,
1622750267527,1622750267528,8.640483,0.040677983,-1.2607185,-0.759824,0.0055346736,-0.65010446,0.0010527901,0.0061084726,0.020463383,-0.008704574,3.130711,-0.004658476,-1.7156823,
1622750267628,1622750267628,8.750552,0.03708875,-1.2044871,-0.7587782,0.0033314372,-0.65133727,0.0020698158,0.00167983,0.033291176,0.0022906773,3.1161168,-0.0041988315,-1.7075838,
1622750267729,1622750267729,9.358628,-0.17706887,-0.97806627,-0.7580682,0.0021169411,-0.6521646,0.0030764716,-0.0027488125,0.019241689,0.008399149,3.055394,0.01881568,-1.6749278,
1622750267830,1622750267831,10.535299,-0.07537391,-0.9098708,-0.7571832,0.0010108186,-0.6531843,0.004781942,-0.0036650836,-0.021532366,0.025502874,3.0124364,0.0071277623,-1.6569465,
1622750267932,1622750267932,11.345868,-0.20697916,-2.0985055,-0.7574645,0.002040712,-0.65285385,0.005013048,-0.0036650836,-0.044286426,0.018172706,-3.140188,0.017936513,-1.7536871,
1622750268033,1622750268034,11.621042,-0.36370903,-1.8221345,-0.75850606,0.00456856,-0.65163505,0.004408383,-0.0047340663,-0.015423893,-1.5271181E-4,3.093822,0.030909833,-1.7263261,
1622750268134,1622750268135,10.475478,-0.4019942,-2.0135603,-0.75880194,0.0051181237,-0.65128875,0.0040427726,-0.0019852535,-0.0029015245,-0.009926268,3.1381583,0.0376671,-1.7606968,
1622750268235,1622750268235,9.3155575,0.325723,-1.3815559,-0.7585056,0.004378095,-0.6516383,0.004192563,-0.006872032,0.016340164,-0.013133216,3.0655282,-0.034573406,-1.7180294,
1622750268336,1622750268337,8.495717,-0.4848457,-1.2367902,-0.758122,0.003399776,-0.65208924,0.004362342,-0.008551862,0.005803049,0.007941014,3.0693974,0.056414213,-1.7153589,
1622750268436,1622750268437,9.49143,0.0023928226,-1.0019945,-0.7575932,0.0027214151,-0.65269935,0.0053566024,-0.010384403,0.02351762,0.00671932,3.0028558,-2.5071032E-4,-1.6759751,
1622750268538,1622750268539,10.392926,-0.8066803,-1.198505,-0.7571391,0.002153977,-0.65322053,0.00622143,-0.004428643,0.0019852535,0.020616096,3.0360017,0.07695492,-1.6856085,
1622750268639,1622750268639,10.626226,-0.23688944,-1.0666007,-0.75684094,0.0021830248,-0.6535554,0.0072369515,-0.0056503373,-0.0015271181,0.0076355906,3.0167253,0.022177806,-1.6708356,
1622750268740,1622750268741,11.135,-0.73011,-1.1673983,-0.7567026,0.0025371448,-0.6537043,0.008086914,-0.004886778,-0.016340164,7.635591E-4,3.0275846,0.06511931,-1.6752552,
1622750268841,1622750268842,9.539287,-0.31465617,-0.3269194,-0.7569015,0.0030785098,-0.6534722,0.008041081,-0.003970507,-0.003206948,0.0030542363,2.9241161,0.032954007,-1.6050538,
1622750268942,1622750268942,9.22463,-0.2321038,-1.5203397,-0.7566629,0.0027916655,-0.653744,0.008500714,-0.0056503373,0.041079476,-0.013591352,3.1103582,0.024821289,-1.734141,
1622750269042,1622750269042,8.969496,-0.36490545,-0.49800622,-0.75570965,0.001056391,-0.65483457,0.009670048,-0.009620844,0.03420745,-0.011911522,2.9601455,0.040598057,-1.6262616,
1622750269142,1622750269143,9.957133,-0.23928227,-0.9768698,-0.7539392,-0.002175964,-0.65683466,0.011798359,-0.008551862,-0.0056503373,0.0013744063,3.025929,0.023911856,-1.6685909,
1622750269243,1622750269243,10.510175,-0.39481574,-1.1961123,-0.7538738,-0.0020617992,-0.656904,0.012130559,-0.0019852535,-0.038177952,0.022143213,3.0647292,0.037306853,-1.684114,
1622750269344,1622750269345,11.714362,0.02871387,-1.0055838,-0.7545785,-5.4298795E-4,-0.656108,0.011544756,-0.003206948,-0.03130592,-0.00335966,3.0174024,-0.0024421818,-1.6564283,
1622750269445,1622750269445,11.090733,-0.28235307,-1.6689938,-0.7550292,3.1494763E-4,-0.65559804,0.011043371,4.5813544E-4,-0.02687728,-0.0062611843,3.1254292,0.025169697,-1.720161,
1622750269546,1622750269546,9.970294,0.13040884,-1.5885352,-0.7558639,0.0014346015,-0.65465695,0.009589463,0.0038177953,0.022448637,-0.008399149,3.1356964,-0.0129161,-1.7287952,
1622750269647,1622750269649,8.781659,-0.1363909,-1.3600205,-0.7544963,-0.0013624115,-0.6562122,0.0109100975,0.0029015245,0.043064732,-0.008704574,3.1385005,0.015347158,-1.7244462,
1622750269750,1622750269751,9.4280205,0.15583257,-0.61794645,-0.7537195,-0.0029297327,-0.65708596,0.011675171,-0.002443389,0.02687728,-0.014813046,3.0086315,-0.016491778,-1.6362463,
1622750269850,1622750269851,10.435997,0.17138593,-0.5772685,-0.75274956,-0.0048350925,-0.6581671,0.012678335,0.0053449133,-0.037414394,0.015729317,3.0012894,-0.016396036,-1.6260551,
1622750269951,1622750269951,11.463116,0.029910283,-0.9732806,-0.7532579,-0.0038745436,-0.65760237,0.012112714,0.0038177953,-0.056961507,0.02275406,3.0520983,-0.0025999027,-1.6554986,
1622750270052,1622750270052,11.66531,-0.5733801,-1.495215,-0.754254,-0.004155959,-0.65643656,0.013216248,0.009773556,-0.032527618,0.019699825,3.1075425,0.04871515,-1.6982775,
1622750270153,1622750270154,9.923634,0.23838496,-1.9274186,-0.7557044,-0.0049989014,-0.65472466,0.014880235,0.004886778,0.0219905,-0.018019995,-3.0799634,-0.02357691,-1.762633,
1622750270254,1622750270255,8.682357,0.008374879,-1.4533406,-0.7544252,-0.0053513404,-0.65620935,0.014256061,0.00167983,0.05467083,-0.020463383,-3.1355462,-9.513495E-4,-1.7366488,
1622750270356,1622750270356,8.975478,-0.0526421,-0.31256247,-0.7531546,-0.00636416,-0.65766233,0.0140687665,-0.006413896,0.034971006,-0.011606098,2.9481058,0.005861482,-1.6056063,
1622750270457,1622750270458,9.997811,-0.21894327,-0.994816,-0.7524226,-0.008452685,-0.6584467,0.015386263,-0.0019852535,-0.032222193,0.0030542363,3.0513306,0.021788059,-1.6699733,
1622750270558,1622750270559,10.632208,-0.535095,-1.4090735,-0.75294423,-0.009542345,-0.6578175,0.01612935,0.0045813546,-0.060779303,0.025808297,3.0971282,0.04985017,-1.7025573,
1622750270660,1622750270661,11.083554,-0.19621146,-1.1303096,-0.7547903,-0.009365712,-0.65566975,0.017353306,0.005803049,0.008551862,-0.00503949,3.0537403,0.017609771,-1.6724257,
1622750270761,1622750270761,10.453943,-0.52911294,-1.7910278,-0.7546662,-0.010567227,-0.65576404,0.018458683,0.004123219,0.0151184695,-0.010689827,-3.1307964,0.04984554,-1.7404746,
1622750270862,1622750270863,9.036794,0.48963133,-0.718445,-0.75444555,-0.008275429,-0.65611917,0.015847145,-0.006413896,0.046424393,-0.013133216,2.999501,-0.053959124,-1.6501317,
1622750270963,1622750270964,9.727423,-0.3469593,-0.61675006,-0.75257736,-0.012190913,-0.65813404,0.018392745,-0.002443389,-0.0070247436,0.0062611843,3.0021641,0.035581663,-1.6341149,
1622750271064,1622750271064,9.687941,0.032303106,-1.6654046,-0.75280166,-0.012019212,-0.65789557,0.017849797,-0.0015271181,-0.030542362,0.0056503373,-3.1220975,-0.003286149,-1.7410372,
1622750271164,1622750271164,9.466306,-0.36011982,-1.3480564,-0.7530245,-0.011510122,-0.6576545,0.017666986,0.004886778,-0.004123219,0.025502874,3.1179328,0.03764452,-1.712251,
1622750271264,1622750271265,10.5436735,-0.30029923,-1.4318053,-0.7532341,-0.010656512,-0.6574228,0.017891487,-0.0,0.02275406,-1.5271181E-4,3.107896,0.028214937,-1.7057682,
1622750271366,1622750271366,11.404491,0.086141616,-2.0219352,-0.7524194,-0.011830703,-0.6582958,0.019278925,-0.004275931,-0.005803049,-0.013133216,-3.1184556,-0.0074371854,-1.7462659,
1622750271467,1622750271468,11.207981,0.0741775,-1.3815559,-0.75225335,-0.012365732,-0.6584766,0.019250114,-3.0542363E-4,-0.0070247436,-0.009009997,3.08181,-0.0065684663,-1.6934431,
1622750271568,1622750271569,11.158929,-0.26919255,-1.5717853,-0.7518735,-0.013046573,-0.6588823,0.019752463,-0.003206948,-0.038177952,-0.0022906773,3.110916,0.023883168,-1.7107302,
1622750271670,1622750271671,9.756136,-0.27876383,-1.4174483,-0.7523075,-0.012524341,-0.65842164,0.018910073,-0.0030542363,-0.025961008,-0.0013744063,3.1155667,0.02826877,-1.7150747,
1622750271771,1622750271771,9.792028,-0.3361916,-1.4162519,-0.75294924,-0.011600537,-0.6577351,0.0178151,-0.006413896,4.5813544E-4,-0.00167983,3.1107752,0.033966556,-1.7144334,
1622750271872,1622750271872,10.650154,-0.24526432,-0.9661021,-0.75296116,-0.011569146,-0.6577222,0.017809706,-0.0015271181,-4.5813544E-4,-0.0029015245,3.0234263,0.02293099,-1.6612612,
1622750271973,1622750271973,11.102697,-0.23449662,-1.9525433,-0.7525725,-0.012443769,-0.65814185,0.01814193,0.00167983,-0.029778805,0.02107423,3.1370964,0.02079847,-1.7448783,
1622750272074,1622750272075,10.06481,-0.8006983,-1.1937194,-0.75290436,-0.011543951,-0.6577819,0.018019903,0.0012216945,0.023212196,0.021532366,3.0534954,0.07883679,-1.6888481,
1622750272175,1622750272176,10.224232,-0.10289137,-0.9876375,-0.7523471,-0.0117585445,-0.6583707,0.01958616,-0.0035123718,0.023212196,-0.010842538,3.0043921,0.010016521,-1.6670953,
1622750272276,1622750272277,9.248559,-0.078963146,-0.7328019,-0.7517259,-0.012934801,-0.65903497,0.020339428,-0.0012216945,0.0056503373,-0.008399149,2.971075,0.008511006,-1.6498653,
1622750272378,1622750272378,10.093524,-0.18664017,-1.0342976,-0.75101066,-0.014388589,-0.65979606,0.021097336,-0.0012216945,0.0056503373,0.0071774554,3.0110977,0.018392684,-1.6729113,
1622750272479,1622750272479,10.525727,0.35324043,-1.2750753,-0.75043786,-0.015637834,-0.6604025,0.02161252,9.162709E-4,-0.018325418,-1.5271181E-4,3.0421894,-0.033303842,-1.6913478,
1622750272580,1622750272581,9.769297,0.14596218,-1.8879371,-0.7481362,-0.018482164,-0.66278344,0.025858916,-0.003970507,-0.017561859,-4.5813544E-4,-3.1319838,-0.014668443,-1.7616951,
1622750272681,1622750272681,9.168399,0.16301104,-0.9876375,-0.7472439,-0.02041443,-0.66370183,0.026640251,-0.0015271181,0.045966256,-1.5271181E-4,3.0422592,-0.017675553,-1.6781044,
1622750272782,1622750272783,9.745368,-0.42502514,-0.73519474,-0.748193,-0.017927865,-0.6627194,0.026243981,-0.0047340663,0.022295926,-0.009926268,3.0098977,0.043462075,-1.6460941,
1622750272883,1622750272883,10.955539,-0.17347965,-0.5159524,-0.7467816,-0.020718038,-0.6641675,0.027739536,-0.006413896,-0.019852536,0.0019852535,2.9765942,0.015816031,-1.6178566,
1622750272984,1622750272984,10.127024,-0.5721837,-0.75553375,-0.7455478,-0.021937303,-0.6654045,0.030234605,0.002443389,-0.037414394,0.020310672,3.0244944,0.05628458,-1.645264,
1622750273085,1622750273086,9.692726,-0.22612174,-0.285045,-0.746153,-0.020504078,-0.66478926,0.029842457,0.004275931,0.00167983,0.008399149,2.9520018,0.023314709,-1.600196,
1622750273186,1622750273187,8.836694,0.008374879,-0.86201435,-0.74690723,-0.01920891,-0.66402376,0.028863559,0.004275931,0.024892027,-0.011911522,3.042346,-9.4326126E-4,-1.6680381,
1622750273286,1622750273287,9.396914,0.09212367,-1.0857433,-0.7463449,-0.020287579,-0.66459644,0.029482052,-0.0015271181,0.035429142,-0.015576605,3.0598047,-0.00973851,-1.6858288,
1622750273388,1622750273389,9.497412,0.2958127,-0.8883354,-0.74477625,-0.023120292,-0.6661758,0.031362794,-0.0027488125,0.0015271181,-0.016340164,3.0239656,-0.031001372,-1.6640594,
1622750273489,1622750273490,10.348659,-0.096909314,-1.07019,-0.7445574,-0.023830906,-0.66639763,0.03131439,-0.005497625,-0.008857286,-0.0010689828,3.0480704,0.009314489,-1.6738434,
1622750273591,1622750273592,10.83829,0.023928227,-1.0642079,-0.7448949,-0.02334155,-0.6660619,0.030794514,-7.635591E-4,-0.019852536,-0.004123219,3.0419722,-0.0021971795,-1.6686722,
1622750273692,1622750273693,10.474282,-0.11246266,-1.637588,-0.7452311,-0.022947133,-0.66572744,0.03018323,0.004275931,-0.006872032,0.008704574,3.1257563,0.010607764,-1.7258846,
1622750273794,1622750273796,9.872188,-0.17706887,-1.2834502,-0.74510705,-0.022810632,-0.66584796,0.030686226,-0.0010689828,0.040010497,0.0030542363,3.0864465,0.017784575,-1.7000779,
1622750273895,1622750273896,9.460323,0.1052842,-0.25633112,-0.7444442,-0.023805441,-0.666508,0.031673547,-0.0030542363,0.028098974,-0.0071774554,2.926579,-0.011124485,-1.5978851,
1622750273996,1622750273997,9.518948,0.043070808,-0.76749784,-0.74289006,-0.026292827,-0.6680418,0.033810966,-0.0015271181,-0.0077883024,0.0193944,3.0078475,-0.004510078,-1.6512507,
1622750274097,1622750274097,10.06481,-0.21894327,-0.93738824,-0.7426992,-0.026230533,-0.66822505,0.034425095,0.0018325418,-0.018019995,0.029473381,3.037917,0.02165622,-1.6636636,
1622750274198,1622750274199,10.696815,0.025124637,-1.7730815,-0.7432962,-0.024252722,-0.6676268,0.03459779,0.00167983,-0.011911522,0.017714571,-3.1398988,-0.0023171748,-1.7350607,
1622750274299,1622750274299,11.004591,-0.25603202,-1.0582259,-0.74364996,-0.023256127,-0.6672717,0.03453137,0.0045813546,-0.0029015245,0.010842538,3.0471077,0.023154957,-1.6666638,
1622750274400,1622750274400,10.577173,-0.18783657,-1.5598212,-0.743703,-0.022742676,-0.66721255,0.03487224,0.0038177953,-0.0021379655,-0.005803049,3.1236188,0.017566856,-1.7172115,
1622750274499,1622750274500,10.225429,-0.4139583,-0.7268199,-0.74369544,-0.022815349,-0.66722095,0.03482411,0.004123219,-7.635591E-4,-0.020616096,3.0160766,0.040359415,-1.6417567,
1622750274600,1622750274601,9.677173,-0.16151553,-0.8452646,-0.7434279,-0.024126263,-0.6674982,0.034337405,0.005803049,-0.01175881,-0.005497625,3.040219,0.016625525,-1.6579214,
1622750274701,1622750274701,9.904491,-0.16630118,-1.0893325,-0.7425396,-0.02587758,-0.6683745,0.035225887,1.5271181E-4,-0.006413896,0.003206948,3.074112,0.016688291,-1.6803397,
1622750274801,1622750274802,10.178768,0.30299118,-1.5311074,-0.7424619,-0.026813,-0.66845906,0.034552492,4.5813544E-4,-0.006566608,0.005955761,3.1321914,-0.02942733,-1.7200986,
1622750274902,1622750274902,9.8937235,0.18574286,-0.9493524,-0.7425239,-0.026669336,-0.6683981,0.034510996,0.00167983,0.0021379655,0.007482879,3.0468845,-0.018685797,-1.6664585,
1622750275003,1622750275003,10.494621,-0.16749759,-1.0749756,-0.7416174,-0.028083384,-0.6692798,0.035771042,0.0045813546,-0.006413896,-4.5813544E-4,3.0590506,0.015875919,-1.6728715,
1622750275103,1622750275104,9.640084,0.13878371,-0.8895318,-0.74175346,-0.028079575,-0.66914976,0.035383403,0.00335966,0.011453386,0.0047340663,3.0363455,-0.014334641,-1.6628101,
1622750275204,1622750275205,10.2266245,-0.49322057,-0.6299106,-0.7407858,-0.029713182,-0.670085,0.0366007,-7.635591E-4,0.013896775,-0.0045813546,3.0003002,0.04810071,-1.6323137,
1622750275305,1622750275306,10.480264,-0.20578274,-0.22881366,-0.7398306,-0.030890377,-0.6709971,0.038201448,-0.006413896,-0.0012216945,-0.012064233,2.9333386,0.019628067,-1.5926256,
1622750275407,1622750275407,10.560424,0.101694964,-0.8847462,-0.73687506,-0.034713842,-0.6737739,0.04288223,0.0018325418,-0.030847786,-0.0038177953,3.0154262,-0.0095959045,-1.6543806,
1622750275507,1622750275508,10.741381,-0.023928227,-0.7495517,-0.73596215,-0.03627411,-0.67462,0.04395251,-0.0010689828,-0.04550812,0.014965758,2.9889443,0.00222226,-1.6404651,
1622750275608,1622750275608,10.416854,-0.42382872,-1.340878,-0.7362262,-0.035895433,-0.6743764,0.043577418,-0.0019852535,-0.02443389,0.014813046,3.071302,0.040331997,-1.6988144,
1622750275709,1622750275710,9.854242,0.010767702,-1.0630114,-0.7364986,-0.035415206,-0.674124,0.04327155,0.0029015245,0.0045813546,0.014507622,3.0275252,-0.001086394,-1.6782542,
1622750275811,1622750275811,9.940384,-0.49920264,-0.92183495,-0.7372326,-0.03369697,-0.6734373,0.04283404,-0.0056503373,0.008246438,0.012064233,3.0137093,0.04996347,-1.6632682,
1622750275912,1622750275912,9.94158,-0.31106696,-0.8775677,-0.7369772,-0.033447664,-0.67366946,0.043763697,-0.004886778,-0.01099525,-0.0021379655,3.0012271,0.031158207,-1.6588405,
1622750276013,1622750276013,9.884152,0.0047856453,-0.49441698,-0.7361831,-0.03295359,-0.67438716,0.04637291,-0.0012216945,-0.012522369,-0.0038177953,2.9350312,-4.8356896E-4,-1.6207758,
1622750276113,1622750276113,10.008579,-0.39481574,-0.60000026,-0.73521376,-0.033916578,-0.6752747,0.048108824,-0.0036650836,0.0051922016,-0.0053449133,2.9610355,0.039356705,-1.6306733,
1622750276213,1622750276213,10.626226,-1.3154542,-0.5377869,-0.73691887,-0.030919464,-0.6736895,0.046228524,-0.006872032,0.002443389,-0.014354911,2.9671097,0.1230107,-1.6213626,
1622750276313,1622750276314,10.083953,-0.52313083,-0.93619186,-0.7359522,-0.03211479,-0.6745834,0.047752276,-0.0076355906,0.0021379655,-0.048256934,3.0140488,0.05160955,-1.6633707,
1622750276414,1622750276414,9.826724,-0.12323037,-1.590928,-0.7352651,-0.03297053,-0.67521465,0.048820704,-0.0056503373,-0.038330667,-0.040010497,3.1197066,0.012378513,-1.7313018,
1622750276515,1622750276515,9.233006,0.44536412,-1.5574285,-0.73513633,-0.033605654,-0.67533976,0.04859459,-0.0019852535,0.008246438,-0.017561859,3.1280515,-0.04752835,-1.7379038,
1622750276616,1622750276616,9.247362,0.81655073,-0.41904306,-0.73597664,-0.033904072,-0.6745862,0.04606938,-0.0022906773,0.033749312,0.027488127,2.9214654,-0.087982684,-1.6160802,
1622750276717,1622750276717,9.709476,0.4118646,-0.56769717,-0.73530686,-0.034315046,-0.67519623,0.04750125,-3.0542363E-4,0.014354911,0.052685577,2.9698498,-0.04232122,-1.6291982,
1622750276818,1622750276819,9.599406,-0.23808585,-0.92303133,-0.73487234,-0.034083143,-0.6755832,0.04887035,0.004275931,0.0027488125,0.07345438,3.0436282,0.024683261,-1.6666566,
1622750276919,1622750276919,9.602996,-0.8222337,-0.89072824,-0.73471606,-0.030954476,-0.67570233,0.051579453,9.162709E-4,0.028557109,0.02519745,3.054069,0.085050985,-1.6632869,
1622750277019,1622750277020,9.923634,-0.42622152,-0.67058855,-0.7341346,-0.03052188,-0.676274,0.052613627,0.00335966,0.02443389,-0.023823043,3.003376,0.04282622,-1.6382687,
1622750277119,1622750277120,10.159626,0.10767702,-0.49322057,-0.7331267,-0.031820267,-0.67729604,0.052752085,0.0061084726,-0.01175881,-0.0070247436,2.955026,-0.010585659,-1.6193054,
1622750277220,1622750277220,11.13859,-0.27876383,-1.055833,-0.7331205,-0.033704966,-0.6771606,0.053402875,-0.0,-0.02107423,0.01007898,3.0300891,0.024910012,-1.6653045,
1622750277320,1622750277321,10.724631,-0.35294133,-0.6047859,-0.7334135,-0.034712356,-0.6767181,0.054334536,6.1084726E-4,-0.011453386,0.0035123718,2.9729307,0.032845397,-1.6271288,
1622750277421,1622750277422,10.706386,-0.28953153,-0.85244304,-0.7338108,-0.03683262,-0.6760089,0.05636567,-0.0015271181,-0.009009997,-0.013591352,3.0125763,0.026951043,-1.6502488,
1622750277522,1622750277522,10.288838,0.16540386,-0.74596244,-0.7342149,-0.036787935,-0.6756571,0.055340793,0.0021379655,-0.003970507,-0.013133216,2.9900498,-0.016032588,-1.6431718,
1622750277623,1622750277623,10.052846,-0.34337005,-1.1327025,-0.733859,-0.03777327,-0.67598265,0.055422377,0.004275931,-0.004886778,7.635591E-4,3.0601344,0.0339287,-1.682998,
1622750277724,1622750277725,9.309576,-0.09092726,-0.6478567,-0.73420984,-0.038541187,-0.67568743,0.053824138,0.0025961008,0.0077883024,0.01007898,2.9966247,0.009743196,-1.6402746,
1622750277825,1622750277825,9.590733,-0.19740787,-0.40947178,-0.7343416,-0.038510956,-0.6755716,0.05350005,0.00167983,0.021685077,-0.00335966,2.9552715,0.020561557,-1.613465,
1622750277926,1622750277926,10.0983095,-0.046660043,-1.0797613,-0.7336746,-0.039575778,-0.67616755,0.054339852,0.00167983,0.009315421,-0.00167983,3.0553505,0.004594358,-1.6773165,
1622750278028,1622750278028,10.11506,-0.09810573,-0.9493524,-0.7326269,-0.041340802,-0.67709744,0.05556843,0.0045813546,-0.00167983,0.008704574,3.0400047,0.009656238,-1.6643776,
1622750278128,1622750278129,10.449158,-0.5877371,-1.3002,-0.7328671,-0.041469466,-0.6768902,0.054824453,0.0038177953,-0.0053449133,0.013591352,3.085312,0.05575901,-1.6945912,
1622750278230,1622750278231,9.954741,-0.18783657,-0.8739785,-0.73252165,-0.042572845,-0.6771995,0.054776624,0.005497625,-0.0015271181,0.009162709,3.0314658,0.01879454,-1.658367,
1622750278331,1622750278331,9.769297,-0.4884349,-0.6023931,-0.7326444,-0.04257966,-0.67709285,0.054446965,0.00335966,0.006872032,-0.00335966,2.9959192,0.049860798,-1.6323802,
1622750278432,1622750278433,9.683155,-0.086141616,-0.6131608,-0.73155856,-0.04389333,-0.6780423,0.05616135,9.162709E-4,0.016645588,-0.005803049,2.9856992,0.008878012,-1.6340343,
1622750278533,1622750278534,10.154541,-0.33140594,-0.19292133,-0.73034227,-0.046080563,-0.6790998,0.057447895,0.0013744063,0.0070247436,-0.0021379655,2.9371014,0.032618772,-1.5897926,
1622750278635,1622750278636,9.827921,-0.45852464,-0.03260221,-0.7283936,-0.049044695,-0.68076766,0.05993994,0.0018325418,0.0056503373,0.020310672,2.918555,0.046621244,-1.5741136,
1622750278736,1622750278736,9.717851,-0.5374878,-0.0134596275,-0.7246367,-0.05473227,-0.68390524,0.06465079,4.5813544E-4,0.00335966,0.0056503373,2.920287,0.055252984,-1.5721813,
1622750278837,1622750278838,9.249755,-0.13399807,-0.65024954,-0.7222092,-0.057507597,-0.68588287,0.068347275,0.0036650836,0.024128467,0.00671932,3.0112658,0.014449991,-1.64098,
1622750278940,1622750278941,9.277272,-0.029910283,0.0741775,-0.7178881,-0.06308464,-0.6893089,0.07423093,0.0012216945,0.034971006,7.635591E-4,2.8909724,0.0032239244,-1.5628009,
1622750279041,1622750279041,9.62812,-0.16630118,0.30987054,-0.7164564,-0.064631455,-0.6904206,0.07636961,-6.1084726E-4,0.016645588,-0.0021379655,2.867943,0.01726179,-1.5386236,
1622750279141,1622750279142,10.648958,-0.076570325,0.3912265,-0.71139354,-0.0699228,-0.69426,0.08386334,-0.0,-0.013744064,-0.0018325418,2.859465,0.007185434,-1.5340744,
1622750279242,1622750279242,10.802398,-0.7743772,0.09092726,-0.7098791,-0.071658894,-0.6953795,0.08593032,0.0025961008,-0.023975754,0.010537115,2.9213421,0.07156073,-1.5623792,
1622750279343,1622750279343,10.626226,-0.26081768,0.24646074,-0.7071356,-0.07519819,-0.6973705,0.08932392,0.00167983,-0.019088976,-0.0025961008,2.8806152,0.024533192,-1.5476068,
1622750279444,1622750279444,10.586744,-0.18424734,0.63200426,-0.7076109,-0.074705645,-0.697027,0.08865182,0.0012216945,-0.006872032,-0.012064233,2.8324056,0.017370911,-1.5111694,
1622750279544,1622750279545,9.577572,-0.10887343,0.73011,-0.70756453,-0.07545243,-0.6970508,0.08820185,-0.003206948,0.020005248,-0.014354911,2.8032918,0.011334169,-1.4947122,
1622750279646,1622750279647,9.475877,-0.35294133,1.0782657,-0.70681244,-0.07670927,-0.6975858,0.08891498,-0.008399149,0.022448637,0.012827792,2.7655313,0.036990594,-1.4574931,
1622750279746,1622750279747,10.266107,-0.4103691,0.37806597,-0.7021843,-0.0814993,-0.70085967,0.095345914,-0.010842538,0.012522369,0.014813046,2.8743722,0.039924894,-1.5339863,
1622750279847,1622750279847,10.024133,-0.30269206,1.5080764,-0.7011866,-0.08221058,-0.7015576,0.09693168,-0.014202199,3.0542363E-4,0.0132859275,2.718278,0.029851433,-1.4214716,
1622750279948,1622750279948,9.880563,-0.2847459,2.4035904,-0.69972616,-0.08282397,-0.70257884,0.099531196,-0.009315421,-0.004428643,0.020921519,2.618704,0.027994838,-1.3321669,
1622750280048,1622750280048,9.837492,-0.5195416,1.8948164,-0.6989555,-0.08298765,-0.7031166,0.1010019,-0.01175881,0.0029015245,0.020616096,2.688627,0.051812783,-1.3805149,
1622750280149,1622750280150,9.419645,-0.6044868,2.507678,-0.6967651,-0.0840245,-0.7046198,0.10473352,-0.014202199,0.0219905,7.635591E-4,2.6167498,0.061933797,-1.3106129,
1622750280250,1622750280251,9.996614,-0.7265208,2.0048864,-0.68850315,-0.090650424,-0.71005887,0.11645753,-0.008093726,0.024128467,-0.00167983,2.6955693,0.07113747,-1.3728657,
1622750280351,1622750280352,10.462317,-0.6475576,1.6875381,-0.67239857,-0.10323724,-0.7198995,0.13772073,-0.01343864,0.016340164,-0.010384403,2.735204,0.061028637,-1.4108769,
1622750280453,1622750280454,9.946365,-0.38165522,2.94706,-0.6641646,-0.10950726,-0.72458184,0.14790094,-0.010537115,-0.006413896,-0.028557109,2.5881796,0.03677378,-1.2827419,
1622750280555,1622750280556,10.40489,-0.08015956,2.4191437,-0.65077406,-0.1177619,-0.7318138,0.1645413,-0.00671932,-0.014660334,-0.02779355,2.6381617,0.0075037396,-1.3423543,
1622750280656,1622750280657,10.589137,-0.069391854,1.8924236,-0.6454298,-0.12169107,-0.73453265,0.17050917,-0.0010689828,-0.013896775,-0.006566608,2.7158678,0.006450821,-1.3939496,
1622750280757,1622750280757,11.284851,-0.2428715,2.1185453,-0.634891,-0.12988845,-0.7396396,0.18159235,-0.003206948,-0.006566608,6.1084726E-4,2.7217202,0.021149233,-1.3852228,
1622750280860,1622750280860,10.080363,-0.12562318,3.1899316,-0.62962854,-0.13419074,-0.74206424,0.18681914,-0.004886778,-0.006566608,0.0015271181,2.5809639,0.011880892,-1.2643169,
1622750280961,1622750280961,10.1751795,-0.05742774,2.6691937,-0.6219855,-0.13998577,-0.7454803,0.19441488,-0.0027488125,-0.0036650836,-0.012369657,2.6342878,0.005459141,-1.3142526,
1622750281062,1622750281063,9.920045,-0.3696911,3.051148,-0.618983,-0.14167303,-0.74681914,0.1976109,-0.0015271181,-0.0021379655,-0.009162709,2.6093266,0.035605222,-1.2724055,
1622750281163,1622750281164,10.022936,-0.2883351,3.1061828,-0.61209816,-0.14677851,-0.7497298,0.20419869,0.0030542363,0.003206948,0.007482879,2.6054063,0.027471324,-1.2702751,
1622750281264,1622750281265,9.575179,-0.13878371,3.1492536,-0.60776687,-0.14999962,-0.7515018,0.20824166,9.162709E-4,0.011911522,0.007482879,2.582899,0.013767662,-1.2530432,
1622750281365,1622750281366,9.613763,-0.20697916,3.3119657,-0.6016129,-0.15371512,-0.75400996,0.21424867,0.0029015245,0.010537115,0.005497625,2.5750794,0.0203526,-1.2390274,
1622750281466,1622750281467,10.028918,-0.086141616,3.124129,-0.5982212,-0.15632986,-0.7553133,0.2172424,4.5813544E-4,0.008857286,0.0056503373,2.5959375,0.008200455,-1.2688117,
1622750281567,1622750281568,9.573982,-0.13878371,2.8776684,-0.59413666,-0.15792935,-0.75697505,0.22146955,-6.1084726E-4,-0.0029015245,0.0051922016,2.610423,0.013881497,-1.278815,
1622750281668,1622750281669,9.025727,0.16061822,2.8163524,-0.59346676,-0.15887699,-0.7571884,0.22185819,0.0021379655,-0.0056503373,0.0022906773,2.575905,-0.016986152,-1.2683342,
1622750281768,1622750281769,9.39811,-0.17467605,2.8175488,-0.5931152,-0.1586098,-0.7573629,0.22239323,0.00335966,-0.004428643,0.006413896,2.6098208,0.017801544,-1.2795235,
1622750281869,1622750281870,9.841082,-0.25722843,2.376073,-0.5947329,-0.15874012,-0.7566488,0.22040187,0.0030542363,-0.0027488125,0.0019852535,2.6722095,0.025402665,-1.3338861,
1622750281970,1622750281970,9.272487,0.058624156,2.4047868,-0.59759563,-0.15674299,-0.7555562,0.21782061,0.0029015245,-0.0056503373,-0.0021379655,2.6286016,-0.006119835,-1.3170404,
1622750282070,1622750282071,9.960723,0.08733802,2.3318057,-0.60042846,-0.15601186,-0.754359,0.21468209,0.004123219,-0.0061084726,-0.00167983,2.660334,-0.008537216,-1.3408374,
1622750282172,1622750282173,10.273285,-0.3505485,1.8912272,-0.6041073,-0.1548187,-0.7528019,0.21065344,0.006566608,-0.011453386,-0.007941014,2.746417,0.033545844,-1.3887429,
1622750282273,1622750282273,10.5018,-0.096909314,1.3692927,-0.606401,-0.1548847,-0.75175405,0.20773636,0.0077883024,-0.014202199,-0.004275931,2.8151977,0.009150168,-1.4411412,
1622750282373,1622750282374,10.258928,0.07058827,1.114158,-0.61056113,-0.15383011,-0.74992156,0.20290172,0.007482879,-0.011453386,-0.010842538,2.8382442,-0.0068403375,-1.4626166,
1622750282474,1622750282475,10.237392,-0.17706887,0.9622138,-0.61220765,-0.153888,-0.74914914,0.20073836,0.0030542363,0.0061084726,-0.011453386,2.858544,0.017218687,-1.4770815,
1622750282576,1622750282576,9.811171,0.15463616,1.5451652,-0.6162977,-0.15218432,-0.74735403,0.19616057,0.00335966,0.014202199,0.0035123718,2.745156,-0.015568074,-1.4145889,
1622750282677,1622750282678,9.577572,0.039481573,1.8780667,-0.61656135,-0.15273151,-0.7471852,0.19554935,0.0025961008,0.014965758,0.007482879,2.6920671,-0.0040452336,-1.3771632,
1622750282778,1622750282778,9.891331,-0.4019942,1.6037893,-0.6186016,-0.15259741,-0.74621886,0.19288184,0.0013744063,7.635591E-4,0.005955761,2.7555118,0.040095653,-1.4100543,
1622750282877,1622750282878,10.272088,-0.67148584,1.1009976,-0.6201666,-0.15134256,-0.7455635,0.19137362,-0.0019852535,-0.011911522,-0.0025961008,2.8366368,0.06490635,-1.4640205,
1622750282978,1622750282978,10.529317,-0.21655045,1.1153544,-0.6233313,-0.14858688,-0.74423504,0.18839897,0.0013744063,-0.012980504,-0.005955761,2.818391,0.020449154,-1.4652615,
1622750283078,1622750283079,10.453943,-0.4322036,0.78634137,-0.6259485,-0.14648978,-0.74310213,0.18581837,-0.0012216945,9.162709E-4,-0.0018325418,2.853426,0.041203793,-1.4957181,
1622750283179,1622750283179,11.418849,-0.44057846,1.0866406,-0.6315901,-0.14193611,-0.7405994,0.180168,-0.008093726,0.0027488125,-0.018172706,2.8261135,0.038391043,-1.4759201,
1622750283280,1622750283280,9.647263,-0.5051847,2.388037,-0.6342583,-0.13909368,-0.73943055,0.17779723,-0.009620844,-0.0219905,-0.024128467,2.6360793,0.05078773,-1.3281388,
1622750283381,1622750283381,8.266903,-0.38763726,1.5846468,-0.64092433,-0.13450097,-0.7362586,0.17043687,-0.004886778,-0.005803049,-0.018478129,2.6918266,0.046019334,-1.381408,
1622750283481,1622750283481,9.620942,0.3807579,0.20697916,-0.64485216,-0.13127874,-0.7343633,0.16625926,-0.0036650836,-0.015423893,-0.015576605,2.8788009,-0.039546162,-1.5492862,
1622750283582,1622750283582,9.270094,0.07776674,1.0830513,-0.6469932,-0.13027185,-0.7332686,0.16354242,-0.003206948,0.023212196,-6.1084726E-4,2.7532935,-0.008332124,-1.4544908,
1622750283683,1622750283684,9.759726,0.02871387,1.1273186,-0.64653945,-0.13062331,-0.73349375,0.1640464,-0.0030542363,0.032527618,0.013744064,2.7754457,-0.0029226372,-1.4557987,
1622750283785,1622750283786,10.477871,-0.18783657,0.41635114,-0.6460995,-0.13023317,-0.73375314,0.16492754,-0.002443389,0.005803049,0.022295926,2.896686,0.017910926,-1.531081,
1622750283887,1622750283888,9.97508,0.009571291,0.8557332,-0.6467541,-0.12924744,-0.73345536,0.16446136,-0.005955761,-0.032527618,0.0062611843,2.838799,-9.560085E-4,-1.4852188,
1622750283987,1622750283988,10.831112,-0.16271193,-0.45014977,-0.6505487,-0.12615119,-0.7315567,0.16030297,0.00671932,-0.045966256,-0.010842538,3.0330694,0.015008559,-1.6123332,
1622750284088,1622750284088,9.973883,-0.19381863,-0.23599213,-0.65263665,-0.12492332,-0.73046905,0.15771666,0.005497625,-0.016187452,-0.03283304,3.0073354,0.019424735,-1.594453,
1622750284189,1622750284190,9.97149,-0.36011982,-0.3281158,-0.65502685,-0.124716245,-0.729147,0.15404625,0.0012216945,0.014202199,-0.043217443,3.020716,0.036079746,-1.6036899,
1622750284290,1622750284290,9.884152,0.14985052,-0.19411774,-0.65550524,-0.12478086,-0.72916055,0.15187977,-0.0,0.020310672,-0.039246935,2.9780025,-0.015156602,-1.5904331,
1622750284391,1622750284391,9.568001,0.020338992,0.43669012,-0.6556829,-0.12456058,-0.7294954,0.1496697,0.0036650836,0.007330167,-0.016492875,2.8877525,-0.002123517,-1.5251873,
1622750284492,1622750284493,10.074382,0.2228316,-0.06131608,-0.6583368,-0.11263127,-0.7321886,0.13344175,0.0012216945,-0.012522369,-0.0047340663,2.958839,-0.022114623,-1.5768826,
1622750284594,1622750284594,10.146166,-0.034695927,0.45583272,-0.6604597,-0.10979157,-0.731512,0.12895326,0.006566608,-0.018630842,0.008704574,2.899558,0.0034161506,-1.5258999,
1622750284695,1622750284696,9.875777,0.26111677,0.23808585,-0.6649039,-0.107135616,-0.7289061,0.12296637,0.009009997,-0.0061084726,-0.0070247436,2.9461386,-0.02642629,-1.546693,
1622750284797,1622750284797,10.692029,-0.101694964,-0.34606197,-0.6689187,-0.10476534,-0.726492,0.117394276,0.013133216,0.011453386,-0.0071774554,3.0350227,0.0095060235,-1.6031514,
1622750284898,1622750284898,10.663315,-0.13399807,-0.026620151,-0.67613417,-0.10076722,-0.72199434,0.106830224,0.009009997,0.013744064,-0.016798299,2.9946764,0.012565566,-1.5732927,
1622750284999,1622750285000,10.674083,0.039481573,-0.37357944,-0.6784325,-0.0995743,-0.7205162,0.103298895,0.007482879,-0.0061084726,-0.025044737,3.0213556,-0.0036965457,-1.6057808,
1622750285100,1622750285100,10.142577,0.56500524,-0.7890333,-0.68265814,-0.09691164,-0.7177621,0.09697205,0.005497625,-0.010537115,-0.007941014,3.0517318,-0.05548148,-1.6484342,
1622750285201,1622750285202,9.6173525,-0.05742774,0.043070808,-0.68717617,-0.09319407,-0.71476924,0.090601996,0.0018325418,-0.0021379655,0.004275931,2.9351032,0.0059711323,-1.5663179,
1622750285302,1622750285303,9.483055,0.18454644,-0.22761725,-0.6901129,-0.09124094,-0.71275556,0.08601639,1.5271181E-4,-0.0021379655,0.014965758,2.9585583,-0.019452596,-1.5947943,
1622750285403,1622750285403,10.0265255,0.3711866,-0.25633112,-0.69250053,-0.088724345,-0.71112627,0.082888484,0.0013744063,0.0053449133,0.014202199,2.9503903,-0.03699149,-1.596356,
1622750285503,1622750285504,9.809975,0.111266255,-0.10079765,-0.6984452,-0.082043745,-0.70695895,0.07518075,0.00167983,-4.5813544E-4,0.027029991,2.939104,-0.01134107,-1.581071,
1622750285603,1622750285604,10.347463,0.0059820567,-0.75553375,-0.7024416,-0.07652739,-0.70408404,0.07060503,0.0053449133,0.0012216945,0.019699825,3.035403,-5.765832E-4,-1.6436833,
1622750285703,1622750285704,10.076775,-0.19142582,-0.28145576,-0.70473564,-0.07338396,-0.70238984,0.06790402,0.0018325418,-0.008551862,0.0013744063,2.9776187,0.018987047,-1.5987202,
1622750285804,1622750285804,9.669994,-0.28953153,-0.325723,-0.7061445,-0.070932895,-0.7013474,0.06663538,0.0077883024,-0.0045813546,0.008857286,2.9865446,0.029915333,-1.6044675,
1622750285905,1622750285905,10.11147,0.4214359,-0.42622152,-0.7086069,-0.06678775,-0.699488,0.064281896,0.004886778,0.004886778,0.027488127,2.9784741,-0.04161797,-1.6129236,
1622750286006,1622750286006,10.223036,0.19172491,-0.5844469,-0.71012825,-0.064639345,-0.6983096,0.062476598,0.004123219,0.0015271181,0.02275406,2.9947686,-0.018721445,-1.6279038,
1622750286106,1622750286106,9.471091,0.3484548,-0.4429713,-0.7120981,-0.061666377,-0.69676507,0.060265522,0.0021379655,0.0045813546,0.009620844,2.9707806,-0.036734704,-1.6175332,
1622750286206,1622750286207,9.408877,-0.08015956,-0.42622152,-0.7119011,-0.061961543,-0.69692075,0.06048977,0.0030542363,0.027182704,0.058488626,2.9742763,0.008510633,-1.6160653,
1622750286306,1622750286307,9.322736,0.23599213,-0.4968098,-0.71224713,-0.0607246,-0.6966592,0.060683038,0.011453386,0.030236939,0.059252184,2.9787521,-0.025272364,-1.6240361,
1622750286408,1622750286408,10.583156,-0.13399807,0.506082,-0.7116539,-0.059003197,-0.6972845,0.062141865,9.162709E-4,0.005803049,0.040163208,2.8529751,0.012646322,-1.5230131,
1622750286509,1622750286510,11.174481,-0.17587246,0.1268196,-0.7109388,-0.057860445,-0.6978294,0.06520919,0.0062611843,-0.043064732,0.027946262,2.9088538,0.015736446,-1.5594478,
1622750286611,1622750286612,11.222338,-0.25722843,-0.72442704,-0.7115498,-0.058030333,-0.69704807,0.066733375,0.011911522,-0.05207473,0.026724568,3.0265841,0.022869512,-1.6352592,
1622750286712,1622750286712,10.619048,-0.31106696,-0.8895318,-0.71357036,-0.058153547,-0.6947531,0.06894618,0.015271181,-0.02519745,0.004275931,3.0497801,0.029182775,-1.6543688,
1622750286813,1622750286814,9.732208,-0.29790643,-0.6562316,-0.714276,-0.058832128,-0.69386977,0.069952,0.013133216,0.017561859,-0.008246438,3.020436,0.030531524,-1.6381233,
1622750286916,1622750286916,9.7908325,-0.022731815,-0.5712864,-0.71396834,-0.059856955,-0.694036,0.070571415,0.009926268,0.029015245,-1.5271181E-4,3.0002153,0.0023177983,-1.6290793,
1622750287016,1622750287016,9.792028,0.03708875,0.12562318,-0.7137266,-0.056628857,-0.6948556,0.06755162,0.013896775,0.006413896,0.014202199,2.9044652,-0.003787318,-1.5579679,
1622750287116,1622750287116,10.176375,0.37477586,0.15672988,-0.7131315,-0.05771926,-0.69519216,0.06942515,0.018019995,-0.0061084726,0.024739314,2.9144735,-0.03680703,-1.5553962,
1622750287217,1622750287217,10.410872,0.047856454,-0.63948184,-0.71317255,-0.057225652,-0.6951617,0.069716275,0.023364907,-0.0029015245,0.011147963,3.070703,-0.004588097,-1.6321437,
1622750287318,1622750287319,9.72144,0.15224335,-0.93738824,-0.713473,-0.057307035,-0.6949244,0.06893625,0.030542362,0.0056503373,0.0051922016,-3.134779,-0.015587012,-1.666924,
1622750287420,1622750287420,9.613763,0.57816577,-0.2970091,-0.7129311,-0.05909585,-0.6953425,0.068817064,0.036650836,0.012980504,0.009926268,3.048264,-0.060038466,-1.6016806,
1622750287521,1622750287522,10.547263,0.2670988,-0.027816564,-0.71251214,-0.062729865,-0.6956363,0.066945136,0.040010497,0.012980504,0.0056503373,3.0173438,-0.025318492,-1.5734336,
1622750287623,1622750287624,9.862617,0.6415756,-0.39870408,-0.71219194,-0.06489711,-0.69585603,0.06599477,0.043217443,-0.0019852535,0.010537115,3.081971,-0.064906865,-1.6112001,
1622750287724,1622750287725,9.720243,0.21206391,0.17347965,-0.7114007,-0.06919503,-0.69639266,0.06448524,0.046118967,-0.006872032,0.022143213,3.0040483,-0.021809796,-1.552951,
1622750287826,1622750287827,9.830314,0.3807579,-0.112761766,-0.7109821,-0.07162539,-0.6966593,0.06356115,0.044439137,0.004428643,0.021532366,3.052843,-0.03871114,-1.5822667,
1622750287927,1622750287927,10.178768,0.5267201,-0.36281174,-0.71062523,-0.075648904,-0.6967324,0.062072393,0.048562355,7.635591E-4,0.014507622,3.0846586,-0.051668074,-1.6064252,
1622750288028,1622750288028,10.089935,0.63798636,-0.14027923,-0.7114668,-0.07363651,-0.69638515,0.058654882,0.048562355,-0.009009997,0.013591352,3.0459502,-0.063139826,-1.5846983,
1622750288129,1622750288130,9.880563,0.46091747,-0.57487565,-0.7115717,-0.07307671,-0.69664,0.05493871,0.050089475,-0.012216945,0.019088976,3.1087165,-0.046536528,-1.6289133,
1622750288230,1622750288231,9.964312,0.43938205,-0.36281174,-0.71171385,-0.073068336,-0.69657457,0.053927977,0.048562355,-0.00167983,0.022295926,3.0687678,-0.044037886,-1.6071913,
1622750288331,1622750288332,10.193126,0.48245287,-0.16061822,-0.71302193,-0.071266696,-0.69570535,0.050148387,0.048562355,9.162709E-4,0.027029991,3.0272489,-0.047290046,-1.5865525,
1622750288433,1622750288433,9.960723,0.4441677,-0.21804596,-0.7132534,-0.07107346,-0.69555485,0.04921031,0.048256934,0.0045813546,0.026419144,3.025892,-0.044551734,-1.5926834,
1622750288534,1622750288535,10.101899,0.35682967,-0.37357944,-0.71337885,-0.07017631,-0.6956407,0.047433577,0.05070032,0.00335966,0.026266431,3.0511873,-0.03528425,-1.6077605,
1622750288634,1622750288635,10.05165,0.82013994,-0.12233306,-0.7130283,-0.07097245,-0.6958709,0.048137225,0.055128966,-9.162709E-4,0.027640838,2.9839935,-0.08140622,-1.5829662,
1622750288735,1622750288736,10.313963,0.28025934,-0.40827537,-0.71318054,-0.071380705,-0.695664,0.048268665,0.05787778,-0.0029015245,0.03283304,3.0432343,-0.027144875,-1.6103604,
1622750288836,1622750288836,10.147363,0.3269194,-0.6263213,-0.71311504,-0.071997486,-0.69562376,0.048897054,0.057419643,-0.002443389,0.027640838,3.0723696,-0.03214491,-1.6324407,
1622750288937,1622750288938,9.78485,0.6583253,0.104087785,-0.7128048,-0.07370841,-0.6956809,0.05004496,0.059099473,0.0,0.026724568,2.9412045,-0.06717502,-1.5601591,
1622750289038,1622750289038,9.568001,1.0331012,0.46181476,-0.71299386,-0.07439663,-0.695417,0.050001048,0.06536066,-0.0036650836,0.02275406,2.8698118,-0.10743381,-1.5225672,
1622750289139,1622750289140,10.378569,0.016749758,-0.61675006,-0.7131782,-0.07329701,-0.69539887,0.049242422,0.06368083,0.0056503373,0.016492875,3.0831876,-0.001611036,-1.6301519,
1622750289240,1622750289240,9.487841,0.8141579,-0.24436702,-0.71307445,-0.07430727,-0.6953867,0.04940258,0.06322269,0.0077883024,0.014507622,3.0119798,-0.085572734,-1.5965464,
1622750289341,1622750289342,10.357034,0.65353966,-0.3293122,-0.7128296,-0.07548509,-0.6955703,0.04855868,0.07040015,-0.007330167,-0.0070247436,3.0288725,-0.062985756,-1.6025816,
1622750289442,1622750289443,10.798809,0.46929234,-0.19651055,-0.71184605,-0.07726941,-0.6962715,0.050106708,0.07375981,-0.005803049,-0.01267508,3.0093224,-0.04342328,-1.5889918,
1622750289543,1622750289545,9.969097,0.8811569,-0.38434714,-0.7113943,-0.0815415,-0.6963484,0.048662536,0.07910472,-0.014660334,-4.5813544E-4,3.0316408,-0.08809462,-1.6093311,
1622750289646,1622750289646,10.426426,0.9529416,-0.25393832,-0.71140283,-0.082865834,-0.6962225,0.048098784,0.07895201,-0.014202199,0.016645588,2.998324,-0.09111667,-1.5951468,
1622750289747,1622750289747,10.319945,0.7902297,-0.28743783,-0.7113506,-0.08828356,-0.69557446,0.048604842,0.078646585,-0.025655584,0.02275406,3.0027897,-0.0763944,-1.5986418,
1622750289848,1622750289848,10.251749,0.6966105,0.18185452,-0.7109364,-0.09166346,-0.69545966,0.050030198,0.07574506,-0.008857286,0.025502874,2.9030344,-0.06783547,-1.5530593,
1622750289949,1622750289950,9.604192,0.541077,-0.06610172,-0.71110475,-0.09603312,-0.69460326,0.051322553,0.07834116,0.008551862,0.023823043,2.9425664,-0.056276772,-1.5776788,
1622750290050,1622750290051,9.598209,0.84406817,0.06460621,-0.7110727,-0.09772188,-0.6943463,0.05205089,0.08521319,0.00335966,0.014049487,2.8960235,-0.08771255,-1.5640653,
1622750290150,1622750290151,10.179965,0.91106725,-0.2958127,-0.7091445,-0.10261912,-0.69527715,0.05633066,0.08353336,-0.003206948,0.010842538,2.9552515,-0.08922085,-1.5998465,
1622750290252,1622750290253,10.401301,0.91226363,-0.42861435,-0.7088935,-0.104019195,-0.695241,0.05735888,0.08750387,-0.0056503373,0.0056503373,2.9792135,-0.08740902,-1.6119808,
1622750290354,1622750290355,9.799207,0.8500503,-0.3999005,-0.7076486,-0.10926867,-0.69542205,0.060679596,0.091168955,-0.008093726,0.014049487,2.9742007,-0.08645863,-1.6115831,
1622750290456,1622750290457,9.739387,1.4330016,0.11724831,-0.7075057,-0.11192779,-0.69507813,0.061435062,0.09575031,9.162709E-4,0.016034741,2.8478284,-0.14607607,-1.5587584,
1622750290557,1622750290557,10.002597,0.6858428,-0.34127632,-0.70623195,-0.1186683,-0.6950414,0.06380975,0.09910997,-0.01175881,0.030695075,2.9436307,-0.068419635,-1.6049019,
1622750290658,1622750290659,10.08156,1.1790633,-0.29102704,-0.70572233,-0.12152052,-0.69496167,0.06493838,0.10185878,-0.016187452,0.03603999,2.908676,-0.11637553,-1.5996556,
1622750290759,1622750290759,10.428819,0.5422734,-0.9026923,-0.7040867,-0.12952076,-0.69455945,0.07122765,0.100637086,-0.009468133,0.037414394,3.0181155,-0.05175762,-1.6571386,
1622750290867,1622750290867,9.820743,1.2017952,-0.28983065,-0.7041572,-0.13167144,-0.69402736,0.07177281,0.10353861,-0.012216945,0.037261683,2.8889172,-0.12171526,-1.6002998,
1622750290968,1622750290968,10.274482,0.8811569,-0.32093734,-0.7025448,-0.13892397,-0.69363916,0.07743143,0.108730815,-0.018630842,0.03970507,2.9048707,-0.08551085,-1.6020225,
1622750291067,1622750291068,9.812367,0.98524475,-0.20368902,-0.702009,-0.14206713,-0.6932561,0.07997655,0.11132691,-0.010231691,0.03771982,2.86544,-0.10005164,-1.5915518,
1622750291168,1622750291169,10.651351,1.1312069,-0.54257256,-0.7009638,-0.14684217,-0.6926821,0.0853153,0.1123959,0.0061084726,0.03130592,2.8975654,-0.10567053,-1.6216917,
1622750291269,1622750291269,9.447163,1.0917253,-0.2228316,-0.70099604,-0.14866012,-0.6920785,0.08678757,0.11193776,-7.635591E-4,0.023059484,2.8326874,-0.11501915,-1.5943791,
1622750291370,1622750291370,10.395319,0.7256235,-0.30538398,-0.6985735,-0.15499154,-0.69231725,0.09310997,0.110868774,-0.014202199,0.016034741,2.8544977,-0.06965991,-1.6001649,
1622750291471,1622750291471,10.099506,1.2702898,-0.16061822,-0.6968869,-0.16002776,-0.69234324,0.09695699,0.11804623,-0.028557109,0.014507622,2.7821634,-0.12510471,-1.5866985,
1622750291572,1622750291573,10.310373,1.2400804,-0.23838496,-0.69575137,-0.16727404,-0.6907975,0.103673376,0.11697725,-0.011911522,-0.004275931,2.782642,-0.11966837,-1.5939131,
1622750291674,1622750291675,10.137792,1.3181462,-0.37597227,-0.6962407,-0.17071423,-0.6893117,0.10466568,0.12048962,-0.006566608,0.009620844,2.779459,-0.1292098,-1.6078656,
1622750291774,1622750291775,9.796814,1.7021942,-0.18095721,-0.6949619,-0.17757715,-0.68825597,0.10861871,0.11865708,-0.010231691,0.008704574,2.6843715,-0.17200357,-1.5892652,
1622750291875,1622750291875,9.954741,1.4006985,0.47018966,-0.69249207,-0.18394354,-0.6882867,0.113494195,0.119267926,-0.01175881,0.021532366,2.59818,-0.13963531,-1.5235987,
1622750291976,1622750291976,9.917651,1.428216,-0.35443684,-0.6899834,-0.1940088,-0.6868448,0.12053051,0.12216945,-0.023975754,0.005497625,2.7049706,-0.1429342,-1.6065191,
1622750292077,1622750292077,10.626226,0.994816,-0.8632108,-0.6878579,-0.1996171,-0.68641233,0.12586722,0.12949961,-0.022448637,0.029931515,2.7829008,-0.09304214,-1.6518524,
1622750292178,1622750292179,10.28166,0.99601245,-0.62751776,-0.6860045,-0.20900244,-0.68413544,0.13294534,0.12598725,3.0542363E-4,0.033749312,2.739939,-0.096393146,-1.6317534,
1622750292279,1622750292279,9.798011,1.0642079,-0.24436702,-0.6852305,-0.21226281,-0.6831528,0.1367696,0.12476555,0.015882028,0.027488127,2.652352,-0.10815721,-1.5957316,
1622750292380,1622750292381,9.93799,1.1324034,0.4977071,-0.68291,-0.21934058,-0.68198913,0.14287898,0.123391144,0.013133216,0.003206948,2.5411174,-0.11331676,-1.5207568,
1622750292481,1622750292481,10.549656,1.3301103,0.104087785,-0.6808835,-0.22325408,-0.6820388,0.14621338,0.12720895,-0.03634541,-0.0151184695,2.5758915,-0.12541309,-1.5609301,
1622750292582,1622750292582,11.315957,1.2125629,-1.0079765,-0.6761283,-0.23326467,-0.6811126,0.15660065,0.14171657,-0.081395395,-0.007482879,2.7351222,-0.10632999,-1.6596376,
1622750292683,1622750292684,9.815957,1.8026928,-0.16301104,-0.677115,-0.23640545,-0.67857724,0.15862101,0.14248012,-0.04734066,-0.011911522,2.5204575,-0.18160085,-1.5874015,
1622750292784,1622750292784,10.593924,1.5801603,-0.6047859,-0.67814004,-0.24314052,-0.674185,0.16273724,0.14064758,-9.162709E-4,-0.010842538,2.6078198,-0.14782842,-1.6278224,
1622750292885,1622750292885,10.370194,1.355235,0.050249275,-0.6778091,-0.24572,-0.6732141,0.16425394,0.13652436,7.635591E-4,-0.009468133,2.50404,-0.12994763,-1.5659509,
1622750292986,1622750292986,10.535299,1.6124634,0.19980069,-0.67567337,-0.2526643,-0.67141056,0.16980617,0.13850962,-0.015576605,-0.010384403,2.4581716,-0.15184793,-1.5518337,
1622750293086,1622750293086,10.6154585,1.2520444,0.57427746,-0.6750589,-0.25596416,-0.6702144,0.17201895,0.14141114,-0.036956258,-0.014049487,2.4310684,-0.11723314,-1.5167508,
1622750293185,1622750293187,9.904491,1.6519449,-0.1594218,-0.67417973,-0.26365918,-0.6666716,0.17752333,0.14919944,-0.028404398,0.0030542363,2.4502025,-0.16524518,-1.5868908,
1622750293287,1622750293288,10.85504,1.428216,0.33499518,-0.673565,-0.26738653,-0.6649545,0.1806937,0.14538164,-0.016340164,-0.0062611843,2.4124932,-0.13075872,-1.5399454,
1622750293388,1622750293389,11.065608,1.8496519,-0.42981076,-0.66759807,-0.28170493,-0.6627766,0.18889758,0.14339639,-0.01099525,-0.0030542363,2.4421768,-0.16549951,-1.6096189,
1622750293489,1622750293490,10.050453,1.9046868,0.19860429,-0.6639855,-0.2886821,-0.6621726,0.19316664,0.14919944,-0.027640838,0.005497625,2.3307815,-0.18725571,-1.5510381,
1622750293590,1622750293590,10.054043,1.4593227,-0.19172491,-0.6569193,-0.30211893,-0.66026473,0.20305578,0.15149012,-0.017561859,0.003970507,2.4119112,-0.14411539,-1.5898634,
1622750293691,1622750293692,10.124631,1.8266209,0.07776674,-0.65306616,-0.3087232,-0.6592651,0.20872016,0.15408622,-0.017867282,-0.0035123718,2.3194664,-0.17848836,-1.5631155,
1622750293792,1622750293793,9.996614,1.7679968,-0.37956148,-0.64755595,-0.31984723,-0.65688676,0.21649198,0.15729317,-0.008551862,-0.016798299,2.3589823,-0.17492591,-1.6087471,
1622750293893,1622750293893,10.12822,1.8230318,0.17587246,-0.64421195,-0.32577768,-0.65556926,0.22155985,0.15194826,-0.0053449133,-0.0070247436,2.2817771,-0.1780621,-1.5534334,
1622750293994,1622750293994,10.790434,1.6950158,-0.49202415,-0.6384538,-0.33766022,-0.65279967,0.22850595,0.15362808,-0.015576605,-0.008399149,2.3584778,-0.15565266,-1.6163629,
1622750294094,1622750294094,10.449158,1.9884356,0.4319045,-0.63484854,-0.3433362,-0.6519632,0.23244704,0.15836215,-0.02443389,-0.012827792,2.223841,-0.18789119,-1.529486,
1622750294195,1622750294196,10.286446,2.3282163,-0.4621139,-0.632348,-0.3482831,-0.6503892,0.23628104,0.15408622,-0.031764057,-0.014049487,2.2382195,-0.22237092,-1.6156907,
1622750294295,1622750294296,10.577173,1.4330016,-0.25752753,-0.6256932,-0.35916522,-0.64744276,0.24561404,0.1575986,-0.018630842,-0.0071774554,2.3002124,-0.13462126,-1.595139,
1622750294396,1622750294396,10.117453,2.0027926,-0.17018951,-0.6207194,-0.36908308,-0.6441457,0.2521138,0.1487413,-0.009773556,-0.00503949,2.2140563,-0.19540076,-1.5876161,
1622750294496,1622750294496,10.142577,2.1284158,0.049052864,-0.61855304,-0.37361893,-0.6423815,0.25523925,0.15530792,-0.015576605,0.0019852535,2.1562145,-0.2068458,-1.56596,
1622750294597,1622750294597,9.896116,1.5933207,0.04426722,-0.61494935,-0.37829143,-0.6412217,0.25993773,0.15958385,-0.0076355906,0.007482879,2.1950052,-0.15963311,-1.5663232,
1622750294697,1622750294697,10.206285,2.1774685,-0.36041892,-0.6093606,-0.38657168,-0.63796574,0.26877832,0.15042114,-0.011453386,0.01175881,2.1311963,-0.21006744,-1.6060951,
1622750294796,1622750294797,10.584352,1.8146569,0.29072794,-0.6044333,-0.39375737,-0.63455045,0.2774189,0.14675605,-0.011453386,0.0038177953,2.1226897,-0.16973352,-1.5433356,
1622750294897,1622750294898,10.795219,1.2918252,-0.43579283,-0.6013282,-0.39784446,-0.63290757,0.28204998,0.14629792,-0.023975754,7.635591E-4,2.20373,-0.11900405,-1.6111435,
1622750294998,1622750294998,10.500603,2.0434706,-0.038584266,-0.5989682,-0.40081632,-0.6313017,0.28642887,0.14904673,-0.024892027,-0.0030542363,2.066088,-0.19220152,-1.5744708,
1622750295098,1622750295098,9.2126665,1.3743775,0.64037913,-0.5959799,-0.406042,-0.62732404,0.2939428,0.14553437,-0.0076355906,-6.1084726E-4,2.0644786,-0.14773998,-1.5013973,
1622750295199,1622750295200,9.163613,1.6734804,-0.3400799,-0.59375554,-0.4103821,-0.62482196,0.2977221,0.14309096,-0.039094225,0.014965758,2.053414,-0.18051024,-1.6078913,
1622750295300,1622750295300,12.235101,0.907478,-0.4322036,-0.5891086,-0.41668653,-0.6208716,0.30633625,0.13209572,-0.04734066,0.020310672,2.1593673,-0.073988505,-1.6061065,
1622750295401,1622750295401,9.868599,1.0091729,-1.7216359,-0.58708215,-0.41872096,-0.6189134,0.3113735,0.13041589,0.006566608,0.015271181,2.2080138,-0.100400776,-1.7435141,
1622750295502,1622750295503,8.76132,1.3755739,-0.51116675,-0.5844774,-0.42515334,-0.6135678,0.31806496,0.12659809,0.02779355,0.0038177953,2.0244625,-0.15547384,-1.6290739,
1622750295603,1622750295604,10.224232,0.9625129,-0.21445672,-0.58208627,-0.42772397,-0.61201614,0.321969,0.13087402,0.011911522,-0.016798299,2.0623846,-0.093843214,-1.5917686,
1622750295705,1622750295706,11.009377,1.1084751,-0.8452646,-0.578219,-0.43343526,-0.6083105,0.3282605,0.13438639,-0.029015245,-0.004275931,2.0718725,-0.10005399,-1.6474228,
1622750295806,1622750295808,11.606686,1.1611172,-0.549751,-0.5771223,-0.436708,-0.6057525,0.33057502,0.13759334,-0.065513365,0.003206948,2.0401714,-0.09959601,-1.618126,
1622750295909,1622750295910,10.56162,1.3432708,-0.7076773,-0.57554746,-0.44361314,-0.5994012,0.3356646,0.13392825,-0.031458635,0.015423893,1.9988405,-0.12622495,-1.6377009,
1622750296010,1622750296010,9.680762,1.0067801,-0.55334026,-0.57488585,-0.4463575,-0.5966809,0.33799878,0.13362284,-0.003206948,0.012369657,2.001947,-0.103457846,-1.627893,
1622750296111,1622750296112,9.723833,1.1934203,0.3900301,-0.5717162,-0.4525043,-0.5911215,0.34489983,0.12827793,0.003206948,0.01007898,1.9275994,-0.12202359,-1.5307071,
1622750296213,1622750296215,9.841082,1.4377873,0.3397808,-0.5700196,-0.4549357,-0.58892995,0.34824234,0.12965234,-0.0070247436,-4.5813544E-4,1.8905768,-0.14498895,-1.5362833,
1622750296315,1622750296316,9.891331,1.4736797,-0.55692947,-0.566924,-0.45991075,-0.5850296,0.35329828,0.131943,-0.031764057,-0.015271181,1.8987988,-0.1476686,-1.6270417,
1622750296416,1622750296417,10.552049,1.4856437,-1.5179468,-0.56552434,-0.4628883,-0.5827303,0.3554463,0.13805148,-0.040621344,6.1084726E-4,1.9346821,-0.13846567,-1.7136694,
1622750296516,1622750296517,10.74497,0.8321041,-0.9098708,-0.56215227,-0.46779153,-0.5783819,0.36142808,0.13927318,-0.02275406,0.010842538,1.9797095,-0.07701249,-1.6552736,
1622750296617,1622750296618,10.076775,1.3791631,-0.12472588,-0.5613183,-0.46916452,-0.57634723,0.36418444,0.13209572,0.0036650836,-0.009468133,1.8671501,-0.13601013,-1.5831733,
1622750296719,1622750296720,9.423235,1.5861423,-0.76630145,-0.5588434,-0.47247258,-0.5728371,0.36921722,0.12965234,0.003970507,-0.022906773,1.8302857,-0.16622071,-1.6519382,
1622750296820,1622750296820,10.217053,0.9732806,-0.23599213,-0.5563762,-0.47386128,-0.57216144,0.37219927,0.12720895,4.5813544E-4,0.0038177953,1.8903878,-0.094948635,-1.5938901,
1622750296921,1622750296921,10.190733,1.1850454,0.5925227,-0.55012184,-0.47940338,-0.5690779,0.3790629,0.13484453,-0.013744064,7.635591E-4,1.836773,-0.11557317,-1.5127184,
1622750297022,1622750297023,10.603495,1.6160526,-0.61794645,-0.5486893,-0.48054707,-0.5674759,0.38208058,0.12873606,-0.0361927,-0.006566608,1.8041041,-0.15099138,-1.629008,
1622750297123,1622750297123,10.164412,1.5155541,-0.60358953,-0.54432213,-0.4844164,-0.56423783,0.3881879,0.14248012,-0.020768806,0.007941014,1.7947544,-0.14775701,-1.6301093,
1622750297224,1622750297224,10.178768,1.3683954,-0.19651055,-0.5419146,-0.48738116,-0.5621722,0.3908332,0.13942589,-0.014965758,0.006872032,1.7902642,-0.13361043,-1.5900998,
1622750297324,1622750297324,10.659726,1.2077773,-0.48006004,-0.5374935,-0.49345508,-0.55712295,0.39650577,0.13484453,-0.023212196,-0.0029015245,1.8067019,-0.112708434,-1.6158009,
1622750297425,1622750297425,10.325927,1.2846466,-0.43938205,-0.53464484,-0.49560517,-0.55568916,0.39967477,0.13652436,-0.037108973,-0.014049487,1.7783269,-0.12366308,-1.613322,
1622750297526,1622750297526,9.39811,1.8242282,-0.9445667,-0.530976,-0.4999091,-0.55188835,0.40444356,0.13530266,-0.029626092,-0.016492875,1.6826499,-0.19078389,-1.6709659,
1622750297627,1622750297627,10.740185,1.2616158,0.3792624,-0.52850705,-0.5027886,-0.54989076,0.4068219,0.14492351,-0.019241689,0.0018325418,1.756982,-0.116858825,-1.5354985,
1622750297728,1622750297729,9.830314,1.7165512,0.2009971,-0.52232015,-0.5083204,-0.5465938,0.41234365,0.14171657,-0.010689827,-0.008704574,1.6890528,-0.17283973,-1.5503525,
1622750297829,1622750297829,9.885348,1.637588,-0.3185445,-0.5199872,-0.51110613,-0.5446584,0.4144044,0.14415996,-0.01267508,-0.007941014,1.6876202,-0.16408357,-1.6030091,
1622750297930,1622750297930,10.76172,1.7524434,-0.2862414,-0.51280427,-0.5169934,-0.5413833,0.420302,0.14186928,-0.017409148,0.003206948,1.685217,-0.1613675,-1.5973881,
1622750298029,1622750298030,10.00499,1.5861423,-0.6454639,-0.5092173,-0.5205373,-0.5395315,0.42266342,0.14309096,-0.022295926,0.004428643,1.6792338,-0.15690579,-1.6352212,
1622750298130,1622750298130,10.495817,0.80578303,-0.76630145,-0.5040103,-0.52465785,-0.5363324,0.42784956,0.14538164,-0.015882028,0.012980504,1.7602693,-0.076418914,-1.6436772,
1622750298231,1622750298231,9.484252,1.2870395,-0.2862414,-0.50062406,-0.52856916,-0.5337442,0.43024102,0.14675605,-0.0036650836,-0.0047340663,1.6808413,-0.13481823,-1.6009679,
1622750298332,1622750298332,9.759726,1.6758732,-0.8344969,-0.49484554,-0.5330115,-0.5305648,0.4353477,0.15026842,0.017103724,-9.162709E-4,1.6240324,-0.16944826,-1.656093,
1622750298433,1622750298433,10.547263,0.95772725,-0.3149553,-0.49146172,-0.5356432,-0.52872354,0.4381816,0.14431266,0.0019852535,-0.007482879,1.6935831,-0.09051492,-1.6006488,
1622750298533,1622750298534,10.674083,1.8460627,-0.4106682,-0.48674595,-0.53916943,-0.5255476,0.44291577,0.14018944,-0.026571855,-0.0151184695,1.593139,-0.17112994,-1.6092508,
1622750298633,1622750298634,10.481461,1.7356937,-0.61076796,-0.48482582,-0.5405516,-0.5239499,0.44522396,0.13942589,-0.044439137,0.0019852535,1.5829629,-0.16383433,-1.6290017,
1622750298735,1622750298735,10.631012,1.1575279,-0.75912297,-0.48040187,-0.54515946,-0.5192741,0.44985506,0.13942589,-0.024739314,0.003970507,1.6236478,-0.10818165,-1.6420819,
1622750298836,1622750298837,10.389337,1.3121641,-0.55692947,-0.47912905,-0.5478596,-0.5163002,0.4513527,0.13285927,-0.014965758,-0.00167983,1.5947151,-0.12545569,-1.6243509,
1622750298938,1622750298938,10.189536,1.3983058,-0.55334026,-0.4759343,-0.5523932,-0.51148355,0.4546789,0.13484453,-0.015576605,-0.0029015245,1.5721098,-0.13617957,-1.6250478,
1622750299038,1622750299038,10.586744,1.3851452,0.44745782,-0.47374597,-0.5536483,-0.51006263,0.45702785,0.13484453,-0.01267508,-0.010842538,1.575215,-0.12998395,-1.5285556,
1622750299139,1622750299141,10.066007,1.9238294,-0.43579283,-0.4699113,-0.556658,-0.5067811,0.4609643,0.13881505,-0.031458635,-0.02015796,1.5027606,-0.18867148,-1.6140628,
1622750299240,1622750299241,10.085149,1.4856437,-0.9445667,-0.46797025,-0.5572122,-0.5054704,0.4637004,0.14171657,-0.014202199,0.0019852535,1.5184996,-0.14562985,-1.664183,
1622750299341,1622750299342,10.568798,1.5239289,-0.24197419,-0.46191242,-0.5617619,-0.5018928,0.4681496,0.13927318,0.0021379655,-0.00503949,1.5279874,-0.1431673,-1.5936875,
1622750299442,1622750299442,10.43839,1.4413766,-0.4429713,-0.45945266,-0.56511223,-0.4989211,0.46971178,0.13728791,-0.008857286,-0.007941014,1.5139819,-0.13709462,-1.6132076,
1622750299543,1622750299543,10.133006,1.7428722,-0.29222345,-0.45356512,-0.56780374,-0.49655357,0.47467056,0.13881505,-0.016187452,0.0056503373,1.482771,-0.17026344,-1.5996271,
1622750299644,1622750299644,10.104292,1.3540385,-0.39870408,-0.4516523,-0.56951594,-0.49460503,0.47647423,0.13896775,-0.018783553,0.009926268,1.4947323,-0.13311028,-1.6102347,
1622750299745,1622750299746,10.862219,1.2774682,-0.10199407,-0.44637638,-0.57304585,-0.49074543,0.48118138,0.1369825,-0.035123717,-0.00671932,1.5089687,-0.11706368,-1.5801859,
1622750299846,1622750299846,10.280463,1.2954143,-0.5880362,-0.44435012,-0.57522386,-0.48840186,0.4828396,0.14064758,-0.032222193,-0.027335415,1.475488,-0.12514433,-1.6279335,
1622750299946,1622750299947,10.0983095,1.2125629,-0.5509474,-0.4420764,-0.5763299,-0.48564032,0.48638025,0.14018944,-0.014354911,-0.01267508,1.4752083,-0.1193279,-1.6253006,
1622750300047,1622750300047,9.849456,1.6591234,-0.116351,-0.43934265,-0.5790719,-0.48354658,0.48768485,0.14141114,-0.0036650836,-0.01267508,1.4351062,-0.16687016,-1.5826087,
1622750300148,1622750300149,10.199107,1.7237296,-0.3281158,-0.43395796,-0.58269525,-0.48058736,0.49110332,0.14171657,-0.006413896,-0.017256435,1.4264998,-0.16734079,-1.6029563,
1622750300248,1622750300249,10.244571,1.3707882,-0.3711866,-0.43090662,-0.58459264,-0.4793218,0.49276924,0.14370182,-0.025961008,-0.01267508,1.4421889,-0.13293001,-1.607013,
1622750300348,1622750300349,9.936794,1.6280167,-0.75194454,-0.42457953,-0.5894242,-0.47587517,0.49583685,0.14675605,-0.011300675,-0.014354911,1.4014453,-0.16193952,-1.6463251,
1622750300449,1622750300450,10.463514,1.6627127,-0.110368945,-0.42168128,-0.5916862,-0.47415295,0.4972638,0.14828317,-0.0051922016,-0.005955761,1.4075458,-0.15757953,-1.5813439,
1622750300550,1622750300550,10.286446,1.4641083,-0.43579283,-0.41550034,-0.5959933,-0.47041416,0.5008612,0.14431266,-0.015423893,-0.0013744063,1.4082327,-0.14125906,-1.6131368,
1622750300651,1622750300652,10.392926,1.7943178,-0.5629115,-0.4130595,-0.59765476,-0.46883714,0.50237674,0.14431266,-0.020768806,0.007482879,1.3670684,-0.17071725,-1.6249064,
1622750300753,1622750300753,10.055239,1.7297117,-0.4956134,-0.4102764,-0.59920615,-0.46763164,0.50393045,0.14706148,-0.014202199,0.016645588,1.363054,-0.17015108,-1.6200455,
1622750300854,1622750300854,10.522139,1.3935201,-0.28145576,-0.40483418,-0.6032866,-0.463069,0.50766295,0.14385453,-0.009009997,0.005497625,1.376769,-0.13162419,-1.5975388,
1622750300955,1622750300955,9.989436,1.8652053,-0.39750767,-0.3999412,-0.6067376,-0.45822057,0.5118109,0.14064758,-0.02443389,-0.0022906773,1.3222191,-0.1844495,-1.6105682,
1622750301056,1622750301056,10.779666,1.0570294,-0.5389833,-0.39775044,-0.60772055,-0.4562743,0.51408565,0.13927318,-0.016340164,0.014202199,1.3603987,-0.097624056,-1.6207547,
1622750301157,1622750301157,10.467104,0.7926225,0.06580263,-0.39597607,-0.60961235,-0.45321208,0.51592106,0.13362284,-7.635591E-4,0.005955761,1.375104,-0.07557937,-1.5645097,
1622750301258,1622750301259,10.194322,1.2675978,-0.24436702,-0.3918062,-0.612293,-0.4484716,0.5200561,0.13560809,-0.029015245,-0.023059484,1.3188248,-0.1236734,-1.5947627,
1622750301359,1622750301360,10.553246,1.4868401,-0.77706915,-0.3902186,-0.6126534,-0.44541577,0.52344066,0.13606623,-0.044744562,-0.02183779,1.2760135,-0.1395951,-1.6442969,
1622750301460,1622750301460,9.472287,1.1659029,-0.48006004,-0.38893107,-0.6128274,-0.4436696,0.52567333,0.1331647,-0.0070247436,-0.020616096,1.2856086,-0.12231426,-1.6214335,
1622750301561,1622750301561,9.082257,1.739283,-0.092422776,-0.3865689,-0.6153859,-0.4410668,0.5266163,0.12965234,0.033749312,-0.02611372,1.2442276,-0.18920298,-1.5809722,
1622750301661,1622750301662,10.033704,1.7333009,-0.116351,-0.3808999,-0.619385,-0.4365763,0.52979106,0.12965234,0.02611372,-0.010231691,1.2482132,-0.17104836,-1.5823919,
1622750301762,1622750301762,10.432407,1.6363916,-0.25633112,-0.3763545,-0.6223592,-0.43228254,0.53306484,0.13606623,-0.039094225,0.03115321,1.2455189,-0.15554261,-1.5953621,
1622750301869,1622750301870,10.620244,1.631606,-0.36281174,-0.37519386,-0.6241289,-0.429135,0.5343556,0.13637166,-0.051616594,0.04352287,1.2359142,-0.15235232,-1.6049453,
1622750301970,1622750301970,10.795219,1.3791631,-0.77706915,-0.3741261,-0.6262188,-0.42527473,0.5357435,0.13530266,-0.0361927,0.037414394,1.2261175,-0.12674408,-1.6426551,
1622750302071,1622750302071,10.528121,1.2412767,-0.67417777,-0.3724004,-0.6299025,-0.41797405,0.5383665,0.1331647,-0.00167983,0.02183779,1.2226958,-0.117121585,-1.6347449,
1622750302172,1622750302172,10.039685,1.1886346,-0.37597227,-0.36918452,-0.6327297,-0.41210192,0.5417822,0.13240114,0.0021379655,0.008704574,1.2162523,-0.11776326,-1.6082275,
1622750302273,1622750302273,10.444372,1.3755739,-0.16181463,-0.36700246,-0.63413554,-0.40944105,0.5436353,0.13408098,-0.015423893,0.008093726,1.2024164,-0.13093556,-1.5862881,
1622750302374,1622750302374,10.136595,1.250848,-0.4441677,-0.36490965,-0.6357389,-0.40661258,0.54529184,0.13514996,-0.032069482,0.015423893,1.184398,-0.12266202,-1.6145866,
1622750302475,1622750302475,10.340284,1.2269198,-0.51236314,-0.36008734,-0.63598573,-0.4041328,0.5500327,0.13728791,-0.035887275,0.020310672,1.1704602,-0.1179588,-1.620306,
1622750302576,1622750302576,10.798809,1.3002,-0.3699902,-0.35528886,-0.6379959,-0.39963093,0.5540994,0.13728791,-0.02779355,0.013591352,1.1644235,-0.11975576,-1.6050451,
1622750302677,1622750302678,10.520942,1.2269198,-0.5243273,-0.35341248,-0.63851523,-0.39768246,0.5560994,0.1357608,-0.019852536,7.635591E-4,1.1414127,-0.11594993,-1.6205916,
1622750302778,1622750302779,10.135399,0.99720883,-0.4764708,-0.35119736,-0.6395699,-0.39564505,0.5577417,0.13820419,-0.009468133,-0.008704574,1.148382,-0.09796557,-1.6177723,
1622750302878,1622750302879,9.920045,1.3719847,-0.42622152,-0.34674755,-0.64151126,-0.3912455,0.5613879,0.13942589,-0.0036650836,-0.0132859275,1.1134908,-0.13730736,-1.6137356,
1622750302979,1622750302979,10.752149,1.3636098,-0.17497516,-0.34454778,-0.6422755,-0.38955718,0.56304014,0.14141114,-0.027640838,-0.0053449133,1.1272041,-0.12613212,-1.5870684,
1622750303080,1622750303080,10.553246,1.4353945,-0.20847467,-0.33811882,-0.643771,-0.38746992,0.56665826,0.14248012,-0.03451287,0.0027488125,1.1089959,-0.1351589,-1.5905483,
1622750303180,1622750303180,9.995419,1.1766706,-0.5461618,-0.33232072,-0.6467444,-0.38377008,0.5692145,0.13927318,-0.032222193,0.0076355906,1.1015495,-0.11700871,-1.6253833,
1622750303281,1622750303281,10.309177,1.3037893,-0.4429713,-0.32985908,-0.64811814,-0.38185224,0.5703724,0.13774605,-0.006413896,-0.004275931,1.0880235,-0.12568618,-1.6137385,
1622750303383,1622750303383,9.564411,1.5885352,-0.36400816,-0.3274116,-0.6496951,-0.37977898,0.5713719,0.13973132,-0.004123219,-0.016340164,1.0628356,-0.16446881,-1.6088365,
1622750303483,1622750303484,10.315159,1.2233306,-0.1378864,-0.32243168,-0.6516737,-0.37620145,0.57430977,0.14339639,-0.01175881,-0.011453386,1.0866498,-0.11803362,-1.5841628,
1622750303584,1622750303585,10.413265,1.4940187,-0.45254257,-0.31986272,-0.652419,-0.37505412,0.57564896,0.1421747,-0.020005248,-0.0070247436,1.0536761,-0.14236762,-1.6142273,
1622750303685,1622750303686,10.360623,1.3624134,-0.5243273,-0.31351563,-0.6548529,-0.37176707,0.57850224,0.14293826,-0.024739314,1.5271181E-4,1.036367,-0.13058376,-1.6213609,
1622750303786,1622750303787,11.225927,1.2352947,-0.325723,-0.31069344,-0.6555984,-0.37026477,0.58014166,0.13850962,-0.02611372,0.0047340663,1.0501263,-0.109552756,-1.5998034,
1622750303887,1622750303887,10.749756,1.2472588,-0.33888352,-0.3055124,-0.65866673,-0.36523378,0.58260155,0.13392825,-0.035429142,-0.014354911,1.026928,-0.115453355,-1.6023107,
1622750303988,1622750303988,9.967901,1.4318053,-0.6550352,-0.30347225,-0.65941715,-0.3635648,0.58386153,0.13728791,-0.03268033,-0.019699825,0.99140805,-0.14236283,-1.6364164,
1622750304088,1622750304088,9.443574,1.0127622,-0.8895318,-0.3006316,-0.66075575,-0.3595036,0.58632725,0.14339639,0.00167983,0.0030542363,0.9876012,-0.10636793,-1.6647136,
1622750304188,1622750304188,9.493823,1.6040884,-0.12352947,-0.29753962,-0.6632502,-0.35665753,0.58682597,0.13805148,0.027640838,-0.009009997,0.9911531,-0.16736652,-1.5838071,
1622750304288,1622750304288,9.928419,1.576571,0.54675996,-0.29090595,-0.66600096,-0.3523679,0.5896213,0.13927318,0.015576605,-0.011147963,1.0124042,-0.15724456,-1.5157818,
1622750304389,1622750304389,10.938788,1.1563315,-0.18335004,-0.288382,-0.66690356,-0.35065645,0.59085995,0.1473669,-0.04688253,0.031611346,1.0019952,-0.10530348,-1.5875562,
1622750304490,1622750304490,11.187642,1.3636098,-1.0378869,-0.28513205,-0.6703673,-0.34429118,0.5922592,0.14064758,-0.07482879,0.015271181,0.9400782,-0.12077356,-1.6633024,
1622750304590,1622750304591,9.904491,1.0402796,-1.2643076,-0.28395152,-0.67284477,-0.34058094,0.5921622,0.13820419,-0.05131117,-0.010842538,0.92816424,-0.10381117,-1.6977596,
1622750304691,1622750304691,8.677571,1.5131612,-0.10677971,-0.28043288,-0.67662656,-0.33550447,0.59242773,0.13560809,0.03863609,-0.039246935,0.9368355,-0.17262745,-1.5831009,
1622750304791,1622750304791,9.841082,1.4198412,-0.35084763,-0.27705094,-0.6777383,-0.33368656,0.59377337,0.14141114,0.033902023,-0.024281178,0.93226504,-0.14319845,-1.6064326,
1622750304891,1622750304891,11.089537,1.7428722,-0.0948156,-0.27083173,-0.679331,-0.32983696,0.59696496,0.14263284,-0.031764057,-0.005497625,0.9285746,-0.1558829,-1.5793462,
1622750304991,1622750304991,10.590334,1.5693926,-0.11395818,-0.26819137,-0.68086255,-0.3273811,0.5977635,0.1524064,-0.06139015,0.044744562,0.9272005,-0.14711194,-1.5815564,
1622750305091,1622750305092,10.337892,1.0857433,-1.0426725,-0.2658998,-0.6850288,-0.32068568,0.5976567,0.14782503,-0.04031592,0.014202199,0.885903,-0.10411759,-1.6713157,
1622750305192,1622750305192,10.409676,0.6559325,-1.3660027,-0.2642751,-0.6867702,-0.31712988,0.59827584,0.14904673,0.0076355906,-0.007941014,0.8915189,-0.062395096,-1.7012751,
1622750305293,1622750305293,9.29163,1.759622,-1.0055838,-0.2599633,-0.6896178,-0.31160524,0.59979045,0.15164283,0.020768806,-0.025502874,0.82504475,-0.18609916,-1.6786014,
1622750305393,1622750305394,11.605489,0.72323066,-0.14027923,-0.2565267,-0.69064546,-0.30933592,0.6012605,0.15362808,-0.0012216945,-0.009926268,0.92075753,-0.062232964,-1.582883,
1622750305494,1622750305494,11.100305,1.3133606,0.022432713,-0.25092593,-0.6925425,-0.3054329,0.6034334,0.14706148,-0.028098974,-0.0030542363,0.8861436,-0.11776977,-1.5687754,
1622750305595,1622750305596,10.5029955,1.8687944,-0.2742773,-0.24846983,-0.6943038,-0.30257383,0.6038659,0.14782503,-0.046424393,-0.008704574,0.84037846,-0.17602807,-1.5969046,
1622750305697,1622750305697,10.684851,1.1060823,-0.62751776,-0.24282844,-0.6985778,-0.29607922,0.6044506,0.14675605,-0.026571855,-0.010384403,0.8343829,-0.102975145,-1.6294587,
1622750305796,1622750305797,10.753345,1.2317054,-0.36281174,-0.23842685,-0.6995887,-0.29509103,0.60551596,0.15042114,-0.009773556,-0.004123219,0.8305953,-0.11398029,-1.604523,
1622750305897,1622750305897,9.796814,1.7871394,-0.31375888,-0.23117723,-0.69897044,-0.29395062,0.6095822,0.1473669,-0.00167983,-0.0045813546,0.7965229,-0.18034598,-1.602812,
1622750305996,1622750305997,10.529317,0.77347994,-1.747957,-0.22797887,-0.6989932,-0.2924125,0.6114974,0.1473669,-0.01267508,0.006872032,0.75735444,-0.07234141,-1.7353046,
1622750306097,1622750306097,10.301999,1.1324034,-0.7639086,-0.22109836,-0.69899416,-0.29006526,0.61512995,0.14797775,-0.007330167,-0.00167983,0.7829644,-0.10918385,-1.6448123,
1622750306197,1622750306198,10.407283,1.4593227,-0.10917253,-0.21856993,-0.69948155,-0.28825766,0.61632806,0.14782503,-0.02443389,-0.009620844,0.7899045,-0.1393054,-1.581286,
1622750306297,1622750306298,10.110274,1.6854445,-0.7818548,-0.21562551,-0.69911015,-0.28710845,0.61831975,0.1487413,-0.03451287,0.0022906773,0.73512423,-0.16470417,-1.6479754,
1622750306397,1622750306398,9.87817,1.2173486,-0.24675983,-0.20968743,-0.7002181,-0.28358704,0.6207288,0.1511847,-0.010537115,0.016034741,0.7652648,-0.12258015,-1.5957714,
1622750306497,1622750306498,9.867402,1.881955,0.14476576,-0.2022909,-0.70161307,-0.27968305,0.62337375,0.14492351,0.008093726,0.00503949,0.7500217,-0.18844128,-1.5561262,
1622750306597,1622750306598,9.866206,1.7668004,-0.24077778,-0.20000793,-0.7019765,-0.27669582,0.62503225,0.14507623,0.007330167,0.009315421,0.71701133,-0.17714612,-1.5951958,
1622750306698,1622750306698,10.12822,1.2161521,0.1052842,-0.19673353,-0.7025524,-0.27482143,0.62625015,0.14675605,-0.035123717,0.023059484,0.7313501,-0.11949705,-1.5604016,
1622750306799,1622750306799,10.535299,1.4318053,-0.17736799,-0.1902795,-0.7020862,-0.27047944,0.6306422,0.14263284,-0.049325917,0.014202199,0.6985993,-0.13505903,-1.5876303,
1622750306899,1622750306899,10.878968,1.0115658,-0.8392825,-0.18869182,-0.7026152,-0.2670831,0.6319762,0.1357608,-0.014660334,-0.007482879,0.6617307,-0.0924439,-1.647791,
1622750307000,1622750307000,9.539287,1.2496517,-0.1594218,-0.18540321,-0.70517254,-0.25909978,0.633423,0.13148487,0.0012216945,-0.0038177953,0.6672407,-0.13024081,-1.5875069,
1622750307101,1622750307101,9.380164,1.0893325,-0.37238303,-0.18089932,-0.70608884,-0.25291175,0.6361994,0.1279725,0.008093726,-0.012827792,0.6510933,-0.11552342,-1.6104745,
1622750307202,1622750307202,9.1002035,1.285843,0.07058827,-0.17871743,-0.70606166,-0.2502345,0.6379026,0.12461284,0.008246438,-0.023364907,0.65267044,-0.14036486,-1.5630397,
1622750307303,1622750307303,10.357034,0.8967103,-0.93978107,-0.17598528,-0.7064487,-0.24728318,0.6393829,0.123391144,0.009009997,-0.018019995,0.6064927,-0.08601285,-1.661287,
1622750307403,1622750307404,10.135399,1.0091729,-0.17258233,-0.16990148,-0.70701057,-0.24269855,0.64215803,0.13484453,-0.0029015245,-0.006566608,0.62939745,-0.09922775,-1.5878223,
1622750307504,1622750307504,10.297214,1.198206,-0.2324029,-0.16713901,-0.7075852,-0.23993124,0.64328897,0.13820419,-0.02687728,-0.019241689,0.61000746,-0.11581196,-1.593362,
1622750307605,1622750307605,11.355439,0.4645067,-0.52911294,-0.16382426,-0.70772964,-0.23518586,0.64573056,0.13026318,-0.025961008,-0.0030542363,0.61344475,-0.040839043,-1.6173582,
1622750307705,1622750307706,10.288838,1.637588,-0.657428,-0.16114357,-0.70912856,-0.23259452,0.64580894,0.12507097,-0.018325418,-0.02611372,0.55373216,-0.15752175,-1.6346068,
1622750307806,1622750307806,10.343873,1.2329018,-0.7280163,-0.15481201,-0.7116898,-0.22707926,0.64650285,0.12293301,-0.024739314,-0.020463383,0.5510717,-0.118341826,-1.6410619,
1622750307906,1622750307907,10.225429,1.0929217,-0.42622152,-0.15196644,-0.7128636,-0.22482324,0.64667314,0.12430742,-0.0219905,0.00671932,0.5595829,-0.10638681,-1.6124548,
1622750308007,1622750308007,10.032507,1.2532408,-0.19890338,-0.14704135,-0.7134593,-0.22011042,0.6487727,0.12751436,-0.025655584,-0.0025961008,0.55366844,-0.1242501,-1.5906196,
1622750308107,1622750308107,10.252946,1.4138591,0.22612174,-0.14480984,-0.7131789,-0.21814814,0.65024406,0.12675081,-0.019852536,0.0022906773,0.56565493,-0.13700071,-1.5487456,
1622750308207,1622750308208,10.846665,0.75194454,-0.31016964,-0.14034924,-0.7138944,-0.21311708,0.6521027,0.12949961,-0.020310672,-0.0022906773,0.5474975,-0.06918602,-1.5993844,
1622750308309,1622750308309,10.119845,0.99960166,-0.35443684,-0.13824742,-0.71427816,-0.21031556,0.65304035,0.122627586,-0.017867282,-0.007482879,0.5285479,-0.09839706,-1.605806,
1622750308410,1622750308410,10.105488,1.7057835,-0.69212395,-0.13439806,-0.7149608,-0.2056515,0.65458053,0.1201842,-0.017409148,-0.017714571,0.4844687,-0.16683783,-1.6391795,
1622750308511,1622750308511,10.074382,0.8895318,-0.56530434,-0.13254537,-0.7147768,-0.20367223,0.655777,0.12965234,-0.009468133,0.012522369,0.4999041,-0.0879304,-1.6268506,
1622750308612,1622750308613,9.515358,1.6160526,-0.4118646,-0.12743825,-0.71473664,-0.19940975,0.65813893,0.12308572,-0.016798299,-0.0132859275,0.48282027,-0.16807657,-1.6140535,
1622750308713,1622750308713,11.026127,1.1419746,-0.5521438,-0.12545364,-0.71484697,-0.19730034,0.6590355,0.12705623,-0.018019995,-1.5271181E-4,0.48319155,-0.10307368,-1.6208305,
1622750308814,1622750308814,10.589137,0.95054877,-0.4872385,-0.12099577,-0.71529526,-0.19360697,0.6604764,0.1279725,-0.019547112,-0.005803049,0.47880143,-0.08943233,-1.616777,
1622750308915,1622750308915,10.18834,1.224527,0.14237295,-0.11864164,-0.71579075,-0.19095077,0.66113955,0.12827793,-0.015423893,-0.023059484,0.49668202,-0.11960373,-1.5568231,
1622750309016,1622750309016,10.580763,1.4318053,-0.30299118,-0.114148445,-0.7158967,-0.18698914,0.6629458,0.12552911,-0.008551862,-0.030389652,0.45576504,-0.13445005,-1.5994246,
1622750309117,1622750309118,10.024133,0.9804591,-0.37238303,-0.111853115,-0.71600974,-0.18515068,0.6637305,0.12507097,-0.0077883024,-0.038483378,0.44986814,-0.09743295,-1.6079279,
1622750309219,1622750309221,10.103095,1.1120644,-0.2228316,-0.1059347,-0.71692806,-0.18138489,0.6647492,0.12216945,-0.0045813546,-0.04382829,0.44541153,-0.10960388,-1.5928485,
1622750309321,1622750309321,10.261321,1.4712868,-0.11515459,-0.10200714,-0.7172101,-0.18013494,0.66539884,0.12461284,-0.0019852535,-0.03436016,0.43499863,-0.14240234,-1.582018,
1622750309422,1622750309423,10.040882,1.5394822,-0.2862414,-0.09573075,-0.7168062,-0.17779027,0.6673943,0.12705623,-0.011911522,-0.033596598,0.41306624,-0.15207586,-1.5992962,
1622750309524,1622750309524,10.900503,1.2400804,-0.2228316,-0.092733204,-0.71711016,-0.1764611,0.66784364,0.12552911,-0.009009997,-0.0193944,0.4148803,-0.11325313,-1.5912358,
1622750309625,1622750309625,10.293624,1.5634105,-0.11515459,-0.08490848,-0.7184625,-0.17291923,0.668357,0.123391144,-0.020463383,-0.03283304,0.40219998,-0.1507202,-1.5819829,
1622750309725,1622750309726,10.058828,1.3911272,-0.12233306,-0.08302682,-0.7181043,-0.17098488,0.66947514,0.12583454,-0.005803049,-0.028557109,0.3939344,-0.13741735,-1.5829575,
1622750309826,1622750309826,10.298409,1.2628121,0.1902294,-0.07696629,-0.7193719,-0.16694349,0.6698583,0.12308572,-0.006413896,-0.025502874,0.40174988,-0.12199234,-1.5523267,
